"id","trial_num","acc","rt","target_loc","dist_loc","hp_loc","block_num","age","relative_hp_dist","relative_target"
14,1,1,784.391165,3,5,1,1,"adult","lp_2","lp_2"
14,2,1,908.449173,3,0,1,1,"adult","absent","lp_2"
14,3,1,916.420937,2,1,1,1,"adult","high_prob","lp_1"
14,4,1,1057.694674,4,0,1,1,"adult","absent","lp_3"
14,5,1,1030.939817,4,3,1,1,"adult","lp_2","lp_3"
14,6,1,964.851379,2,1,1,1,"adult","high_prob","lp_1"
14,7,1,855.842352,5,0,1,1,"adult","absent","lp_2"
14,8,1,931.971788,1,2,1,1,"adult","lp_1","high_prob"
14,9,1,901.753426,1,0,1,1,"adult","absent","high_prob"
14,10,1,1034.682035,5,1,1,1,"adult","high_prob","lp_2"
14,11,1,913.966894,5,6,1,1,"adult","lp_1","lp_2"
14,12,1,969.99073,4,0,1,1,"adult","absent","lp_3"
14,13,1,1076.747656,3,1,1,1,"adult","high_prob","lp_2"
14,14,1,1001.639128,6,0,1,1,"adult","absent","lp_1"
14,15,1,714.015961,4,0,1,1,"adult","absent","lp_3"
14,16,1,826.967001,4,0,1,1,"adult","absent","lp_3"
14,17,1,1006.76465,3,1,1,1,"adult","high_prob","lp_2"
14,18,1,762.751818,5,0,1,1,"adult","absent","lp_2"
14,19,1,995.752335,3,0,1,1,"adult","absent","lp_2"
14,20,1,1068.670988,1,5,1,1,"adult","lp_2","high_prob"
14,21,1,929.909229,1,0,1,1,"adult","absent","high_prob"
14,22,1,1109.528065,4,1,1,1,"adult","high_prob","lp_3"
14,23,1,1085.83498,2,1,1,1,"adult","high_prob","lp_1"
14,24,1,1115.797997,6,1,1,1,"adult","high_prob","lp_1"
14,25,1,1677.565098,6,1,1,1,"adult","high_prob","lp_1"
14,26,1,1149.263859,5,1,1,1,"adult","high_prob","lp_2"
14,27,1,1204.550028,5,0,1,1,"adult","absent","lp_2"
14,28,1,1179.077864,2,0,1,1,"adult","absent","lp_1"
14,29,1,1406.026602,1,4,1,1,"adult","lp_3","high_prob"
14,30,1,1247.542858,1,6,1,1,"adult","lp_1","high_prob"
14,31,1,1115.989923,6,0,1,1,"adult","absent","lp_1"
14,32,1,1072.362423,2,4,1,1,"adult","lp_3","lp_1"
14,33,1,983.98447,6,0,1,1,"adult","absent","lp_1"
14,34,1,1599.158764,6,2,1,1,"adult","lp_1","lp_1"
14,35,1,1132.332087,4,1,1,1,"adult","high_prob","lp_3"
14,36,1,1152.205706,1,3,1,1,"adult","lp_2","high_prob"
14,37,1,1535.73966,4,1,1,1,"adult","high_prob","lp_3"
14,38,1,1050.31395,3,0,1,1,"adult","absent","lp_2"
14,39,1,908.159971,4,0,1,1,"adult","absent","lp_3"
14,40,1,1054.605961,6,1,1,1,"adult","high_prob","lp_1"
14,41,1,1122.591972,4,1,1,1,"adult","high_prob","lp_3"
14,42,1,1044.052124,3,1,1,1,"adult","high_prob","lp_2"
14,43,1,871.908665,3,1,1,1,"adult","high_prob","lp_2"
14,44,1,940.091133,1,0,1,1,"adult","absent","high_prob"
14,45,1,866.097927,1,0,1,1,"adult","absent","high_prob"
14,46,1,1192.583084,2,0,1,1,"adult","absent","lp_1"
14,47,1,1162.303686,6,0,1,1,"adult","absent","lp_1"
14,48,1,1068.596125,2,0,1,1,"adult","absent","lp_1"
14,49,1,1189.962626,1,0,1,1,"adult","absent","high_prob"
14,50,1,1024.497747,2,1,1,1,"adult","high_prob","lp_1"
14,51,1,801.024437,3,0,1,1,"adult","absent","lp_2"
14,52,1,786.605835,6,1,1,1,"adult","high_prob","lp_1"
14,53,1,875.938892,5,1,1,1,"adult","high_prob","lp_2"
14,54,1,885.216713,5,0,1,1,"adult","absent","lp_2"
14,55,0,799.530745,3,0,1,1,"adult","absent","lp_2"
14,56,1,913.048744,5,0,1,1,"adult","absent","lp_2"
14,57,1,858.8624,6,0,1,1,"adult","absent","lp_1"
14,58,1,1096.760035,5,1,1,1,"adult","high_prob","lp_2"
14,59,1,894.842863,2,0,1,1,"adult","absent","lp_1"
14,60,1,877.175331,2,0,1,1,"adult","absent","lp_1"
14,61,0,1535.370111,1,6,1,2,"adult","lp_1","high_prob"
14,62,1,1340.78908,4,1,1,2,"adult","high_prob","lp_3"
14,63,1,885.415077,4,1,1,2,"adult","high_prob","lp_3"
14,64,1,809.818983,4,1,1,2,"adult","high_prob","lp_3"
14,65,1,936.137676,1,0,1,2,"adult","absent","high_prob"
14,66,1,915.787697,6,0,1,2,"adult","absent","lp_1"
14,67,1,837.310791,2,1,1,2,"adult","high_prob","lp_1"
14,68,1,1287.379742,1,0,1,2,"adult","absent","high_prob"
14,69,1,771.793127,2,0,1,2,"adult","absent","lp_1"
14,70,1,871.845245,6,0,1,2,"adult","absent","lp_1"
14,71,1,747.816801,3,0,1,2,"adult","absent","lp_2"
14,72,1,755.817652,1,0,1,2,"adult","absent","high_prob"
14,73,1,743.513584,5,1,1,2,"adult","high_prob","lp_2"
14,74,1,916.242599,2,4,1,2,"adult","lp_3","lp_1"
14,75,1,762.697935,4,0,1,2,"adult","absent","lp_3"
14,76,1,658.390045,6,0,1,2,"adult","absent","lp_1"
14,77,1,1098.574638,1,0,1,2,"adult","absent","high_prob"
14,78,1,814.265013,3,1,1,2,"adult","high_prob","lp_2"
14,79,1,785.627365,6,1,1,2,"adult","high_prob","lp_1"
14,80,1,1580.677032,6,1,1,2,"adult","high_prob","lp_1"
14,81,1,1130.344629,4,3,1,2,"adult","lp_2","lp_3"
14,82,1,1365.289927,6,1,1,2,"adult","high_prob","lp_1"
14,83,1,1173.923016,4,0,1,2,"adult","absent","lp_3"
14,84,1,1103.364944,6,2,1,2,"adult","lp_1","lp_1"
14,85,1,946.171045,2,1,1,2,"adult","high_prob","lp_1"
14,86,1,889.266729,5,1,1,2,"adult","high_prob","lp_2"
14,87,1,922.162771,3,5,1,2,"adult","lp_2","lp_2"
14,88,1,988.642931,5,6,1,2,"adult","lp_1","lp_2"
14,89,1,808.050394,4,0,1,2,"adult","absent","lp_3"
14,90,1,759.164095,3,0,1,2,"adult","absent","lp_2"
14,91,1,1007.066965,1,5,1,2,"adult","lp_2","high_prob"
14,92,1,732.983112,2,0,1,2,"adult","absent","lp_1"
14,93,1,671.937943,1,0,1,2,"adult","absent","high_prob"
14,94,1,687.406063,5,0,1,2,"adult","absent","lp_2"
14,95,1,816.746235,6,1,1,2,"adult","high_prob","lp_1"
14,96,1,1158.32901,5,1,1,2,"adult","high_prob","lp_2"
14,97,1,899.352551,3,1,1,2,"adult","high_prob","lp_2"
14,98,1,697.285652,6,0,1,2,"adult","absent","lp_1"
14,99,1,834.448099,4,0,1,2,"adult","absent","lp_3"
14,100,1,713.841677,3,0,1,2,"adult","absent","lp_2"
14,101,1,641.019106,6,0,1,2,"adult","absent","lp_1"
14,102,1,693.539381,5,0,1,2,"adult","absent","lp_2"
14,103,0,495.823145,1,3,1,2,"adult","lp_2","high_prob"
14,104,1,931.226969,4,0,1,2,"adult","absent","lp_3"
14,105,1,1416.338921,1,2,1,2,"adult","lp_1","high_prob"
14,106,1,781.909943,5,0,1,2,"adult","absent","lp_2"
14,107,1,731.220961,2,1,1,2,"adult","high_prob","lp_1"
14,108,1,715.442181,2,0,1,2,"adult","absent","lp_1"
14,109,1,863.581181,3,1,1,2,"adult","high_prob","lp_2"
14,110,1,742.099047,2,1,1,2,"adult","high_prob","lp_1"
14,111,1,683.677912,3,0,1,2,"adult","absent","lp_2"
14,112,1,710.386276,5,0,1,2,"adult","absent","lp_2"
14,113,1,756.722689,5,1,1,2,"adult","high_prob","lp_2"
14,114,1,606.170654,3,0,1,2,"adult","absent","lp_2"
14,115,1,895.343304,4,1,1,2,"adult","high_prob","lp_3"
14,116,1,929.678917,1,4,1,2,"adult","lp_3","high_prob"
14,117,1,688.847065,2,0,1,2,"adult","absent","lp_1"
14,118,1,616.876125,5,0,1,2,"adult","absent","lp_2"
14,119,1,662.837029,2,0,1,2,"adult","absent","lp_1"
14,120,1,725.168943,3,1,1,2,"adult","high_prob","lp_2"
14,121,1,1131.276846,1,3,1,3,"adult","lp_2","high_prob"
14,122,1,1288.040638,2,1,1,3,"adult","high_prob","lp_1"
14,123,1,730.540037,3,0,1,3,"adult","absent","lp_2"
14,124,1,639.843225,3,0,1,3,"adult","absent","lp_2"
14,125,1,819.372177,1,0,1,3,"adult","absent","high_prob"
14,126,1,855.357647,6,1,1,3,"adult","high_prob","lp_1"
14,127,1,657.569885,1,0,1,3,"adult","absent","high_prob"
14,128,1,1234.468937,4,1,1,3,"adult","high_prob","lp_3"
14,129,1,698.218107,5,1,1,3,"adult","high_prob","lp_2"
14,130,1,715.814352,3,0,1,3,"adult","absent","lp_2"
14,131,1,606.463432,5,0,1,3,"adult","absent","lp_2"
14,132,1,869.2801,3,1,1,3,"adult","high_prob","lp_2"
14,133,1,679.714918,2,0,1,3,"adult","absent","lp_1"
14,134,1,964.687347,3,5,1,3,"adult","lp_2","lp_2"
14,135,1,600.29006,2,1,1,3,"adult","high_prob","lp_1"
14,136,1,632.82299,4,0,1,3,"adult","absent","lp_3"
14,137,1,516.499996,2,4,1,3,"adult","lp_3","lp_1"
14,138,1,757.102966,6,1,1,3,"adult","high_prob","lp_1"
14,139,1,839.758873,1,0,1,3,"adult","absent","high_prob"
14,140,1,1322.55125,1,5,1,3,"adult","lp_2","high_prob"
14,141,1,748.777151,3,1,1,3,"adult","high_prob","lp_2"
14,142,1,876.328468,1,2,1,3,"adult","lp_1","high_prob"
14,143,1,996.108294,6,2,1,3,"adult","lp_1","lp_1"
14,144,1,848.889828,4,1,1,3,"adult","high_prob","lp_3"
14,145,1,958.390713,1,6,1,3,"adult","lp_1","high_prob"
14,146,1,634.036064,3,1,1,3,"adult","high_prob","lp_2"
14,147,1,693.100214,5,0,1,3,"adult","absent","lp_2"
14,148,1,962.949991,4,1,1,3,"adult","high_prob","lp_3"
14,149,1,680.305243,1,0,1,3,"adult","absent","high_prob"
14,150,1,942.823887,4,0,1,3,"adult","absent","lp_3"
14,151,1,890.601397,2,1,1,3,"adult","high_prob","lp_1"
14,152,1,945.268631,5,1,1,3,"adult","high_prob","lp_2"
14,153,1,828.093052,4,3,1,3,"adult","lp_2","lp_3"
14,154,1,852.463722,2,0,1,3,"adult","absent","lp_1"
14,155,1,599.98107,5,0,1,3,"adult","absent","lp_2"
14,156,1,612.139463,4,1,1,3,"adult","high_prob","lp_3"
14,157,1,1278.825045,6,0,1,3,"adult","absent","lp_1"
14,158,1,864.877224,6,0,1,3,"adult","absent","lp_1"
14,159,1,966.126919,5,6,1,3,"adult","lp_1","lp_2"
14,160,1,836.969137,4,0,1,3,"adult","absent","lp_3"
14,161,1,768.272638,3,1,1,3,"adult","high_prob","lp_2"
14,162,1,811.986208,1,4,1,3,"adult","lp_3","high_prob"
14,163,1,648.007631,3,0,1,3,"adult","absent","lp_2"
14,164,1,660.683155,2,0,1,3,"adult","absent","lp_1"
14,165,1,1001.861811,6,0,1,3,"adult","absent","lp_1"
14,166,1,543.86425,2,0,1,3,"adult","absent","lp_1"
14,167,1,788.643837,5,0,1,3,"adult","absent","lp_2"
14,168,1,705.906391,5,1,1,3,"adult","high_prob","lp_2"
14,169,1,508.430958,5,1,1,3,"adult","high_prob","lp_2"
14,170,1,924.415112,5,0,1,3,"adult","absent","lp_2"
14,171,1,720.223904,2,0,1,3,"adult","absent","lp_1"
14,172,1,771.138668,6,1,1,3,"adult","high_prob","lp_1"
14,173,1,985.692739,6,1,1,3,"adult","high_prob","lp_1"
14,174,1,1004.974127,1,0,1,3,"adult","absent","high_prob"
14,175,1,727.523565,3,0,1,3,"adult","absent","lp_2"
14,176,1,601.649046,6,0,1,3,"adult","absent","lp_1"
14,177,1,784.302711,2,1,1,3,"adult","high_prob","lp_1"
14,178,1,688.395739,6,0,1,3,"adult","absent","lp_1"
14,179,1,997.8652,4,0,1,3,"adult","absent","lp_3"
14,180,1,1035.865068,4,0,1,3,"adult","absent","lp_3"
14,181,1,743.209839,3,1,1,4,"adult","high_prob","lp_2"
14,182,1,983.092785,3,1,1,4,"adult","high_prob","lp_2"
14,183,1,867.014647,4,3,1,4,"adult","lp_2","lp_3"
14,184,1,617.822647,5,1,1,4,"adult","high_prob","lp_2"
14,185,1,808.984756,2,4,1,4,"adult","lp_3","lp_1"
14,186,1,1185.603142,1,0,1,4,"adult","absent","high_prob"
14,187,1,584.643841,2,0,1,4,"adult","absent","lp_1"
14,188,1,659.145355,3,1,1,4,"adult","high_prob","lp_2"
14,189,1,594.848871,4,0,1,4,"adult","absent","lp_3"
14,190,1,834.354639,2,1,1,4,"adult","high_prob","lp_1"
14,191,1,743.311882,4,0,1,4,"adult","absent","lp_3"
14,192,1,921.517134,1,2,1,4,"adult","lp_1","high_prob"
14,193,1,1098.21558,1,6,1,4,"adult","lp_1","high_prob"
14,194,1,605.699539,4,0,1,4,"adult","absent","lp_3"
14,195,1,1078.660011,6,1,1,4,"adult","high_prob","lp_1"
14,196,1,1403.935432,5,0,1,4,"adult","absent","lp_2"
14,197,1,646.143198,3,0,1,4,"adult","absent","lp_2"
14,198,1,663.744926,5,0,1,4,"adult","absent","lp_2"
14,199,1,849.599123,2,0,1,4,"adult","absent","lp_1"
14,200,1,1047.530413,6,1,1,4,"adult","high_prob","lp_1"
14,201,1,659.806967,2,0,1,4,"adult","absent","lp_1"
14,202,1,657.177448,6,0,1,4,"adult","absent","lp_1"
14,203,1,793.237925,1,5,1,4,"adult","lp_2","high_prob"
14,204,1,697.217464,6,0,1,4,"adult","absent","lp_1"
14,205,1,604.76923,2,0,1,4,"adult","absent","lp_1"
14,206,1,1056.23889,6,2,1,4,"adult","lp_1","lp_1"
14,207,1,695.705891,4,1,1,4,"adult","high_prob","lp_3"
14,208,1,716.078281,5,1,1,4,"adult","high_prob","lp_2"
14,209,1,832.126379,1,4,1,4,"adult","lp_3","high_prob"
14,210,1,646.315098,3,0,1,4,"adult","absent","lp_2"
14,211,1,840.755463,4,1,1,4,"adult","high_prob","lp_3"
14,212,1,563.129187,3,5,1,4,"adult","lp_2","lp_2"
14,213,1,651.074409,2,1,1,4,"adult","high_prob","lp_1"
14,214,1,853.927135,1,0,1,4,"adult","absent","high_prob"
14,215,1,604.349613,6,0,1,4,"adult","absent","lp_1"
14,216,1,857.243061,6,0,1,4,"adult","absent","lp_1"
14,217,1,672.856092,1,0,1,4,"adult","absent","high_prob"
14,218,1,573.46487,3,0,1,4,"adult","absent","lp_2"
14,219,1,744.712353,5,0,1,4,"adult","absent","lp_2"
14,220,1,937.332869,4,1,1,4,"adult","high_prob","lp_3"
14,221,1,836.756229,3,1,1,4,"adult","high_prob","lp_2"
14,222,1,834.081888,4,1,1,4,"adult","high_prob","lp_3"
14,223,1,1284.285784,1,3,1,4,"adult","lp_2","high_prob"
14,224,1,788.50317,5,1,1,4,"adult","high_prob","lp_2"
14,225,1,717.993259,5,0,1,4,"adult","absent","lp_2"
14,226,1,1099.649191,2,1,1,4,"adult","high_prob","lp_1"
14,227,1,702.419996,3,0,1,4,"adult","absent","lp_2"
14,228,1,745.028496,6,1,1,4,"adult","high_prob","lp_1"
14,229,1,577.516794,5,0,1,4,"adult","absent","lp_2"
14,230,1,841.71319,6,0,1,4,"adult","absent","lp_1"
14,231,1,846.385479,5,1,1,4,"adult","high_prob","lp_2"
14,232,1,853.7817,2,1,1,4,"adult","high_prob","lp_1"
14,233,1,836.470842,4,0,1,4,"adult","absent","lp_3"
14,234,1,806.289434,2,0,1,4,"adult","absent","lp_1"
14,235,1,1488.089323,5,6,1,4,"adult","lp_1","lp_2"
14,236,1,627.330303,1,0,1,4,"adult","absent","high_prob"
14,237,1,621.4118,1,0,1,4,"adult","absent","high_prob"
14,238,1,1047.902107,6,1,1,4,"adult","high_prob","lp_1"
14,239,1,697.617769,3,0,1,4,"adult","absent","lp_2"
14,240,1,693.349838,4,0,1,4,"adult","absent","lp_3"
14,241,1,949.694395,6,1,1,5,"adult","high_prob","lp_1"
14,242,1,819.415808,3,1,1,5,"adult","high_prob","lp_2"
14,243,1,598.266125,6,0,1,5,"adult","absent","lp_1"
14,244,1,750.982761,4,0,1,5,"adult","absent","lp_3"
14,245,1,698.209763,2,0,1,5,"adult","absent","lp_1"
14,246,1,1276.330709,2,1,1,5,"adult","high_prob","lp_1"
14,247,1,707.640171,1,0,1,5,"adult","absent","high_prob"
14,248,1,732.818127,3,0,1,5,"adult","absent","lp_2"
14,249,1,867.32316,5,1,1,5,"adult","high_prob","lp_2"
14,250,1,898.531914,1,2,1,5,"adult","lp_1","high_prob"
14,251,1,675.709963,5,0,1,5,"adult","absent","lp_2"
14,252,1,541.623831,2,0,1,5,"adult","absent","lp_1"
14,253,1,969.456673,6,0,1,5,"adult","absent","lp_1"
14,254,1,640.108585,5,1,1,5,"adult","high_prob","lp_2"
14,255,1,704.208374,4,1,1,5,"adult","high_prob","lp_3"
14,256,1,681.641102,3,0,1,5,"adult","absent","lp_2"
14,257,1,515.497446,3,0,1,5,"adult","absent","lp_2"
14,258,1,756.422043,5,0,1,5,"adult","absent","lp_2"
14,259,1,762.463093,2,1,1,5,"adult","high_prob","lp_1"
14,260,1,745.312214,1,6,1,5,"adult","lp_1","high_prob"
14,261,1,763.204336,6,1,1,5,"adult","high_prob","lp_1"
14,262,1,593.41383,4,0,1,5,"adult","absent","lp_3"
14,263,1,716.458797,5,1,1,5,"adult","high_prob","lp_2"
14,264,1,521.960735,2,1,1,5,"adult","high_prob","lp_1"
14,265,1,522.188663,2,0,1,5,"adult","absent","lp_1"
14,266,1,547.829628,3,0,1,5,"adult","absent","lp_2"
14,267,1,755.295992,5,6,1,5,"adult","lp_1","lp_2"
14,268,1,1028.67794,6,1,1,5,"adult","high_prob","lp_1"
14,269,1,733.03628,1,4,1,5,"adult","lp_3","high_prob"
14,270,1,661.807775,5,0,1,5,"adult","absent","lp_2"
14,271,1,717.484713,4,1,1,5,"adult","high_prob","lp_3"
14,272,1,763.353825,4,1,1,5,"adult","high_prob","lp_3"
14,273,1,896.62981,2,4,1,5,"adult","lp_3","lp_1"
14,274,1,668.476343,4,1,1,5,"adult","high_prob","lp_3"
14,275,1,667.541504,3,1,1,5,"adult","high_prob","lp_2"
14,276,1,613.277197,3,5,1,5,"adult","lp_2","lp_2"
14,277,1,695.21904,4,3,1,5,"adult","lp_2","lp_3"
14,278,1,798.415899,2,0,1,5,"adult","absent","lp_1"
14,279,1,735.417128,1,0,1,5,"adult","absent","high_prob"
14,280,1,830.161095,5,1,1,5,"adult","high_prob","lp_2"
14,281,1,713.944912,3,1,1,5,"adult","high_prob","lp_2"
14,282,1,754.948854,6,2,1,5,"adult","lp_1","lp_1"
14,283,1,1032.911777,1,0,1,5,"adult","absent","high_prob"
14,284,1,1102.392197,4,0,1,5,"adult","absent","lp_3"
14,285,1,584.578753,3,1,1,5,"adult","high_prob","lp_2"
14,286,1,869.086027,1,3,1,5,"adult","lp_2","high_prob"
14,287,1,748.10791,5,0,1,5,"adult","absent","lp_2"
14,288,1,812.221766,6,0,1,5,"adult","absent","lp_1"
14,289,1,808.415413,4,0,1,5,"adult","absent","lp_3"
14,290,1,849.612713,1,0,1,5,"adult","absent","high_prob"
14,291,1,772.040367,2,0,1,5,"adult","absent","lp_1"
14,292,1,602.720976,4,0,1,5,"adult","absent","lp_3"
14,293,1,890.647888,6,1,1,5,"adult","high_prob","lp_1"
14,294,1,1379.154921,5,0,1,5,"adult","absent","lp_2"
14,295,1,669.530392,1,0,1,5,"adult","absent","high_prob"
14,296,1,648.576021,2,1,1,5,"adult","high_prob","lp_1"
14,297,1,597.595453,6,0,1,5,"adult","absent","lp_1"
14,298,1,655.190945,3,0,1,5,"adult","absent","lp_2"
14,299,1,580.798864,6,0,1,5,"adult","absent","lp_1"
14,300,1,851.814032,1,5,1,5,"adult","lp_2","high_prob"
14,301,1,648.172617,1,0,1,6,"adult","absent","high_prob"
14,302,1,637.214184,3,5,1,6,"adult","lp_2","lp_2"
14,303,1,591.559887,1,5,1,6,"adult","lp_2","high_prob"
14,304,1,644.049883,1,3,1,6,"adult","lp_2","high_prob"
14,305,1,690.850735,3,0,1,6,"adult","absent","lp_2"
14,306,1,825.306654,6,1,1,6,"adult","high_prob","lp_1"
14,307,1,529.533625,3,0,1,6,"adult","absent","lp_2"
14,308,1,713.185787,3,1,1,6,"adult","high_prob","lp_2"
14,309,1,620.988131,4,0,1,6,"adult","absent","lp_3"
14,310,1,659.996986,2,1,1,6,"adult","high_prob","lp_1"
14,311,1,717.1731,5,0,1,6,"adult","absent","lp_2"
14,312,1,1368.983984,5,6,1,6,"adult","lp_1","lp_2"
14,313,1,594.933748,6,0,1,6,"adult","absent","lp_1"
14,314,1,601.93038,2,0,1,6,"adult","absent","lp_1"
14,315,1,714.719772,4,0,1,6,"adult","absent","lp_3"
14,316,1,635.382175,4,1,1,6,"adult","high_prob","lp_3"
14,317,1,559.549809,1,0,1,6,"adult","absent","high_prob"
14,318,1,850.797176,3,1,1,6,"adult","high_prob","lp_2"
14,319,1,653.088093,3,1,1,6,"adult","high_prob","lp_2"
14,320,1,645.698071,5,1,1,6,"adult","high_prob","lp_2"
14,321,1,493.163109,5,0,1,6,"adult","absent","lp_2"
14,322,1,542.175055,3,0,1,6,"adult","absent","lp_2"
14,323,1,684.616089,1,0,1,6,"adult","absent","high_prob"
14,324,1,613.558769,5,1,1,6,"adult","high_prob","lp_2"
14,325,1,554.005146,5,1,1,6,"adult","high_prob","lp_2"
14,326,1,1007.066011,4,3,1,6,"adult","lp_2","lp_3"
14,327,1,837.95476,3,0,1,6,"adult","absent","lp_2"
14,328,1,641.825914,1,6,1,6,"adult","lp_1","high_prob"
14,329,1,620.705366,3,0,1,6,"adult","absent","lp_2"
14,330,1,739.86721,2,1,1,6,"adult","high_prob","lp_1"
14,331,1,999.867678,1,2,1,6,"adult","lp_1","high_prob"
14,332,1,566.866636,6,0,1,6,"adult","absent","lp_1"
14,333,1,773.180962,6,1,1,6,"adult","high_prob","lp_1"
14,334,1,693.696976,4,0,1,6,"adult","absent","lp_3"
14,335,1,941.281319,2,4,1,6,"adult","lp_3","lp_1"
14,336,1,577.903748,2,0,1,6,"adult","absent","lp_1"
14,337,1,809.51643,6,0,1,6,"adult","absent","lp_1"
14,338,1,671.170712,4,1,1,6,"adult","high_prob","lp_3"
14,339,1,802.201748,5,0,1,6,"adult","absent","lp_2"
14,340,1,659.139156,6,0,1,6,"adult","absent","lp_1"
14,341,1,719.750881,2,1,1,6,"adult","high_prob","lp_1"
14,342,1,1868.906736,6,2,1,6,"adult","lp_1","lp_1"
14,343,1,577.81291,4,0,1,6,"adult","absent","lp_3"
14,344,1,631.507874,2,0,1,6,"adult","absent","lp_1"
14,345,1,560.563803,4,1,1,6,"adult","high_prob","lp_3"
14,346,1,613.327742,2,0,1,6,"adult","absent","lp_1"
14,347,1,643.942118,6,1,1,6,"adult","high_prob","lp_1"
14,348,1,916.870594,1,0,1,6,"adult","absent","high_prob"
14,349,1,672.365665,5,0,1,6,"adult","absent","lp_2"
14,350,1,562.968731,2,0,1,6,"adult","absent","lp_1"
14,351,1,635.942698,4,1,1,6,"adult","high_prob","lp_3"
14,352,1,673.062325,5,0,1,6,"adult","absent","lp_2"
14,353,1,834.323883,5,1,1,6,"adult","high_prob","lp_2"
14,354,1,578.653097,6,0,1,6,"adult","absent","lp_1"
14,355,1,898.264647,1,4,1,6,"adult","lp_3","high_prob"
14,356,1,865.709543,3,1,1,6,"adult","high_prob","lp_2"
14,357,1,566.502094,2,1,1,6,"adult","high_prob","lp_1"
14,358,1,747.713566,1,0,1,6,"adult","absent","high_prob"
14,359,1,605.168104,4,0,1,6,"adult","absent","lp_3"
14,360,0,667.564631,6,1,1,6,"adult","high_prob","lp_1"
15,1,1,1792.299986,3,4,3,1,"adult","lp_1","high_prob"
15,2,1,1250.175953,6,3,3,1,"adult","high_prob","lp_3"
15,3,1,942.684174,3,5,3,1,"adult","lp_2","high_prob"
15,4,1,741.849661,6,0,3,1,"adult","absent","lp_3"
15,5,1,684.206963,2,0,3,1,"adult","absent","lp_1"
15,6,1,543.115854,2,0,3,1,"adult","absent","lp_1"
15,7,1,479.161024,5,0,3,1,"adult","absent","lp_2"
15,8,1,521.200418,1,0,3,1,"adult","absent","lp_2"
15,9,1,521.796703,4,0,3,1,"adult","absent","lp_1"
15,10,1,530.724049,3,1,3,1,"adult","lp_2","high_prob"
15,11,1,1205.644608,4,0,3,1,"adult","absent","lp_1"
15,12,1,793.169022,2,3,3,1,"adult","high_prob","lp_1"
15,13,1,1147.444963,4,3,3,1,"adult","high_prob","lp_1"
15,14,1,1015.401125,5,0,3,1,"adult","absent","lp_2"
15,15,1,621.322155,4,0,3,1,"adult","absent","lp_1"
15,16,1,940.264702,5,3,3,1,"adult","high_prob","lp_2"
15,17,1,854.432821,2,0,3,1,"adult","absent","lp_1"
15,18,1,1167.266846,6,0,3,1,"adult","absent","lp_3"
15,19,1,628.207922,4,0,3,1,"adult","absent","lp_1"
15,20,0,932.696104,2,3,3,1,"adult","high_prob","lp_1"
15,21,1,2033.596754,6,0,3,1,"adult","absent","lp_3"
15,22,1,883.021593,1,5,3,1,"adult","lp_2","lp_2"
15,23,1,1193.187714,6,0,3,1,"adult","absent","lp_3"
15,24,1,1916.904926,6,3,3,1,"adult","high_prob","lp_3"
15,25,1,1418.539762,3,0,3,1,"adult","absent","high_prob"
15,26,1,1175.064087,1,3,3,1,"adult","high_prob","lp_2"
15,27,1,1296.364784,6,3,3,1,"adult","high_prob","lp_3"
15,28,1,1209.593296,5,3,3,1,"adult","high_prob","lp_2"
15,29,1,1000.74172,1,0,3,1,"adult","absent","lp_2"
15,30,1,935.441732,1,3,3,1,"adult","high_prob","lp_2"
15,31,1,727.863789,2,3,3,1,"adult","high_prob","lp_1"
15,32,1,1094.177961,4,3,3,1,"adult","high_prob","lp_1"
15,33,1,847.100735,2,0,3,1,"adult","absent","lp_1"
15,34,1,804.682255,3,0,3,1,"adult","absent","high_prob"
15,35,1,937.752724,1,0,3,1,"adult","absent","lp_2"
15,36,1,856.880665,1,3,3,1,"adult","high_prob","lp_2"
15,37,1,1554.023504,6,3,3,1,"adult","high_prob","lp_3"
15,38,1,891.635656,5,0,3,1,"adult","absent","lp_2"
15,39,1,834.297657,4,0,3,1,"adult","absent","lp_1"
15,40,1,1103.900909,5,0,3,1,"adult","absent","lp_2"
15,41,1,701.233149,3,0,3,1,"adult","absent","high_prob"
15,42,1,923.793316,3,2,3,1,"adult","lp_1","high_prob"
15,43,1,1830.87182,4,3,3,1,"adult","high_prob","lp_1"
15,44,1,1000.777721,5,3,3,1,"adult","high_prob","lp_2"
15,45,1,1158.635378,4,1,3,1,"adult","lp_2","lp_1"
15,46,1,829.428673,4,3,3,1,"adult","high_prob","lp_1"
15,47,1,763.558626,1,0,3,1,"adult","absent","lp_2"
15,48,1,764.532804,5,3,3,1,"adult","high_prob","lp_2"
15,49,1,922.56403,2,4,3,1,"adult","lp_1","lp_1"
15,50,1,1077.264786,3,6,3,1,"adult","lp_3","high_prob"
15,51,1,863.461018,5,0,3,1,"adult","absent","lp_2"
15,52,1,604.298353,3,0,3,1,"adult","absent","high_prob"
15,53,1,841.902733,3,0,3,1,"adult","absent","high_prob"
15,54,1,954.501629,6,2,3,1,"adult","lp_1","lp_3"
15,55,1,847.476006,2,3,3,1,"adult","high_prob","lp_1"
15,56,1,674.736977,6,0,3,1,"adult","absent","lp_3"
15,57,1,678.852081,1,3,3,1,"adult","high_prob","lp_2"
15,58,1,699.489355,2,0,3,1,"adult","absent","lp_1"
15,59,1,596.642733,5,6,3,1,"adult","lp_3","lp_2"
15,60,1,1735.091686,1,0,3,1,"adult","absent","lp_2"
15,61,1,1120.329857,1,0,3,2,"adult","absent","lp_2"
15,62,1,1336.930037,2,3,3,2,"adult","high_prob","lp_1"
15,63,1,1071.374893,3,6,3,2,"adult","lp_3","high_prob"
15,64,1,922.3423,5,0,3,2,"adult","absent","lp_2"
15,65,1,626.361132,6,0,3,2,"adult","absent","lp_3"
15,66,1,1012.657881,2,4,3,2,"adult","lp_1","lp_1"
15,67,1,1499.878883,5,3,3,2,"adult","high_prob","lp_2"
15,68,1,567.106247,6,0,3,2,"adult","absent","lp_3"
15,69,1,843.21785,6,2,3,2,"adult","lp_1","lp_3"
15,70,1,1031.1234,2,0,3,2,"adult","absent","lp_1"
15,71,1,1177.699327,4,0,3,2,"adult","absent","lp_1"
15,72,1,711.822033,3,0,3,2,"adult","absent","high_prob"
15,73,1,1027.910233,6,3,3,2,"adult","high_prob","lp_3"
15,74,1,992.432594,1,3,3,2,"adult","high_prob","lp_2"
15,75,1,706.901312,4,0,3,2,"adult","absent","lp_1"
15,76,1,709.38015,2,0,3,2,"adult","absent","lp_1"
15,77,1,1030.533075,2,3,3,2,"adult","high_prob","lp_1"
15,78,1,779.918909,4,0,3,2,"adult","absent","lp_1"
15,79,1,1169.506788,4,1,3,2,"adult","lp_2","lp_1"
15,80,1,1060.888052,4,0,3,2,"adult","absent","lp_1"
15,81,1,651.621819,6,0,3,2,"adult","absent","lp_3"
15,82,1,1149.815083,2,3,3,2,"adult","high_prob","lp_1"
15,83,1,1017.774582,3,1,3,2,"adult","lp_2","high_prob"
15,84,1,753.48568,1,0,3,2,"adult","absent","lp_2"
15,85,1,1101.295948,2,0,3,2,"adult","absent","lp_1"
15,86,1,768.975496,6,0,3,2,"adult","absent","lp_3"
15,87,1,854.846001,4,3,3,2,"adult","high_prob","lp_1"
15,88,1,1082.487583,3,4,3,2,"adult","lp_1","high_prob"
15,89,1,636.789799,1,0,3,2,"adult","absent","lp_2"
15,90,1,1044.672251,4,3,3,2,"adult","high_prob","lp_1"
15,91,1,613.685846,6,3,3,2,"adult","high_prob","lp_3"
15,92,1,734.44891,5,0,3,2,"adult","absent","lp_2"
15,93,1,708.679914,6,3,3,2,"adult","high_prob","lp_3"
15,94,1,684.26156,2,3,3,2,"adult","high_prob","lp_1"
15,95,1,607.900858,1,0,3,2,"adult","absent","lp_2"
15,96,1,500.33474,1,3,3,2,"adult","high_prob","lp_2"
15,97,1,988.088846,3,0,3,2,"adult","absent","high_prob"
15,98,1,621.021032,2,0,3,2,"adult","absent","lp_1"
15,99,1,691.623688,5,0,3,2,"adult","absent","lp_2"
15,100,1,600.813389,5,0,3,2,"adult","absent","lp_2"
15,101,1,1013.879061,5,0,3,2,"adult","absent","lp_2"
15,102,1,934.854031,4,3,3,2,"adult","high_prob","lp_1"
15,103,1,964.717865,3,0,3,2,"adult","absent","high_prob"
15,104,1,647.273779,5,6,3,2,"adult","lp_3","lp_2"
15,105,1,927.841425,1,3,3,2,"adult","high_prob","lp_2"
15,106,1,1127.416134,1,5,3,2,"adult","lp_2","lp_2"
15,107,1,1053.510904,5,3,3,2,"adult","high_prob","lp_2"
15,108,1,954.529524,1,3,3,2,"adult","high_prob","lp_2"
15,109,1,842.13376,1,0,3,2,"adult","absent","lp_2"
15,110,1,1006.893158,6,3,3,2,"adult","high_prob","lp_3"
15,111,1,767.424822,3,0,3,2,"adult","absent","high_prob"
15,112,1,728.239059,5,3,3,2,"adult","high_prob","lp_2"
15,113,1,943.042994,3,5,3,2,"adult","lp_2","high_prob"
15,114,1,967.180729,2,0,3,2,"adult","absent","lp_1"
15,115,1,1273.712635,4,3,3,2,"adult","high_prob","lp_1"
15,116,1,777.99511,4,0,3,2,"adult","absent","lp_1"
15,117,1,878.898144,5,3,3,2,"adult","high_prob","lp_2"
15,118,1,1168.62011,3,0,3,2,"adult","absent","high_prob"
15,119,1,734.279871,6,0,3,2,"adult","absent","lp_3"
15,120,1,1109.105825,3,2,3,2,"adult","lp_1","high_prob"
15,121,1,920.16387,4,0,3,3,"adult","absent","lp_1"
15,122,1,606.053829,1,0,3,3,"adult","absent","lp_2"
15,123,1,723.312616,5,0,3,3,"adult","absent","lp_2"
15,124,1,844.653845,2,0,3,3,"adult","absent","lp_1"
15,125,1,566.86902,2,0,3,3,"adult","absent","lp_1"
15,126,1,712.979317,5,3,3,3,"adult","high_prob","lp_2"
15,127,1,665.234089,6,3,3,3,"adult","high_prob","lp_3"
15,128,1,1014.431477,3,2,3,3,"adult","lp_1","high_prob"
15,129,1,610.102654,3,0,3,3,"adult","absent","high_prob"
15,130,1,792.659044,4,3,3,3,"adult","high_prob","lp_1"
15,131,1,604.902744,4,0,3,3,"adult","absent","lp_1"
15,132,1,642.683983,1,0,3,3,"adult","absent","lp_2"
15,133,1,615.104914,6,0,3,3,"adult","absent","lp_3"
15,134,1,896.268845,1,3,3,3,"adult","high_prob","lp_2"
15,135,1,535.167933,4,0,3,3,"adult","absent","lp_1"
15,136,1,1037.838221,2,0,3,3,"adult","absent","lp_1"
15,137,1,922.331095,6,2,3,3,"adult","lp_1","lp_3"
15,138,0,1909.36017,2,3,3,3,"adult","high_prob","lp_1"
15,139,1,3578.73559,2,3,3,3,"adult","high_prob","lp_1"
15,140,1,1138.758898,3,0,3,3,"adult","absent","high_prob"
15,141,1,773.167849,1,5,3,3,"adult","lp_2","lp_2"
15,142,1,1394.831419,5,6,3,3,"adult","lp_3","lp_2"
15,143,1,736.869097,1,0,3,3,"adult","absent","lp_2"
15,144,1,1227.078676,3,1,3,3,"adult","lp_2","high_prob"
15,145,1,836.096048,4,1,3,3,"adult","lp_2","lp_1"
15,146,1,1035.586834,3,0,3,3,"adult","absent","high_prob"
15,147,1,681.724548,5,0,3,3,"adult","absent","lp_2"
15,148,1,793.859005,1,3,3,3,"adult","high_prob","lp_2"
15,149,1,981.486082,6,0,3,3,"adult","absent","lp_3"
15,150,1,760.690689,5,0,3,3,"adult","absent","lp_2"
15,151,1,993.497133,2,3,3,3,"adult","high_prob","lp_1"
15,152,1,966.42065,2,0,3,3,"adult","absent","lp_1"
15,153,1,767.487764,6,0,3,3,"adult","absent","lp_3"
15,154,1,1188.853025,2,3,3,3,"adult","high_prob","lp_1"
15,155,1,567.564011,5,0,3,3,"adult","absent","lp_2"
15,156,1,823.530197,5,3,3,3,"adult","high_prob","lp_2"
15,157,1,677.807093,1,3,3,3,"adult","high_prob","lp_2"
15,158,1,573.316813,6,3,3,3,"adult","high_prob","lp_3"
15,159,1,552.444458,5,0,3,3,"adult","absent","lp_2"
15,160,1,639.741659,6,3,3,3,"adult","high_prob","lp_3"
15,161,1,783.869028,3,0,3,3,"adult","absent","high_prob"
15,162,1,1213.454723,3,6,3,3,"adult","lp_3","high_prob"
15,163,1,964.329243,3,0,3,3,"adult","absent","high_prob"
15,164,1,730.079651,4,0,3,3,"adult","absent","lp_1"
15,165,1,1662.485838,2,4,3,3,"adult","lp_1","lp_1"
15,166,1,711.243868,6,0,3,3,"adult","absent","lp_3"
15,167,1,1264.327765,6,0,3,3,"adult","absent","lp_3"
15,168,1,645.149946,1,0,3,3,"adult","absent","lp_2"
15,169,1,1273.15855,3,4,3,3,"adult","lp_1","high_prob"
15,170,1,1050.106525,4,3,3,3,"adult","high_prob","lp_1"
15,171,1,711.915255,5,3,3,3,"adult","high_prob","lp_2"
15,172,1,667.475462,4,0,3,3,"adult","absent","lp_1"
15,173,1,943.525314,3,5,3,3,"adult","lp_2","high_prob"
15,174,1,1051.512003,4,3,3,3,"adult","high_prob","lp_1"
15,175,1,724.217176,2,0,3,3,"adult","absent","lp_1"
15,176,1,740.164042,6,3,3,3,"adult","high_prob","lp_3"
15,177,1,700.197935,5,3,3,3,"adult","high_prob","lp_2"
15,178,1,590.267658,1,3,3,3,"adult","high_prob","lp_2"
15,179,1,589.56337,1,0,3,3,"adult","absent","lp_2"
15,180,1,723.874092,4,3,3,3,"adult","high_prob","lp_1"
15,181,1,604.023933,4,3,3,4,"adult","high_prob","lp_1"
15,182,1,776.637316,6,2,3,4,"adult","lp_1","lp_3"
15,183,1,1032.783985,2,3,3,4,"adult","high_prob","lp_1"
15,184,1,622.070074,5,0,3,4,"adult","absent","lp_2"
15,185,1,646.345139,1,0,3,4,"adult","absent","lp_2"
15,186,1,911.113739,3,0,3,4,"adult","absent","high_prob"
15,187,1,671.967983,1,0,3,4,"adult","absent","lp_2"
15,188,1,707.960606,6,3,3,4,"adult","high_prob","lp_3"
15,189,1,768.968821,5,0,3,4,"adult","absent","lp_2"
15,190,1,674.618244,6,0,3,4,"adult","absent","lp_3"
15,191,1,758.832216,4,1,3,4,"adult","lp_2","lp_1"
15,192,1,661.124706,5,3,3,4,"adult","high_prob","lp_2"
15,193,1,927.085876,5,3,3,4,"adult","high_prob","lp_2"
15,194,1,720.164537,3,0,3,4,"adult","absent","high_prob"
15,195,1,882.688999,2,0,3,4,"adult","absent","lp_1"
15,196,1,806.949377,5,3,3,4,"adult","high_prob","lp_2"
15,197,1,954.833031,3,1,3,4,"adult","lp_2","high_prob"
15,198,1,1137.876034,3,4,3,4,"adult","lp_1","high_prob"
15,199,1,790.564775,4,3,3,4,"adult","high_prob","lp_1"
15,200,1,849.909782,1,3,3,4,"adult","high_prob","lp_2"
15,201,1,802.439928,5,0,3,4,"adult","absent","lp_2"
15,202,1,910.25281,3,2,3,4,"adult","lp_1","high_prob"
15,203,1,766.213655,6,3,3,4,"adult","high_prob","lp_3"
15,204,1,722.081184,4,0,3,4,"adult","absent","lp_1"
15,205,1,923.163176,3,0,3,4,"adult","absent","high_prob"
15,206,1,608.844995,1,0,3,4,"adult","absent","lp_2"
15,207,1,559.747458,2,0,3,4,"adult","absent","lp_1"
15,208,1,750.4282,1,0,3,4,"adult","absent","lp_2"
15,209,1,694.88883,6,0,3,4,"adult","absent","lp_3"
15,210,1,792.128325,2,3,3,4,"adult","high_prob","lp_1"
15,211,1,1069.956064,3,6,3,4,"adult","lp_3","high_prob"
15,212,1,745.810032,2,0,3,4,"adult","absent","lp_1"
15,213,1,693.228722,5,3,3,4,"adult","high_prob","lp_2"
15,214,1,622.270107,5,0,3,4,"adult","absent","lp_2"
15,215,1,671.254873,1,3,3,4,"adult","high_prob","lp_2"
15,216,1,677.013159,4,0,3,4,"adult","absent","lp_1"
15,217,1,851.272583,2,0,3,4,"adult","absent","lp_1"
15,218,1,1119.175196,5,6,3,4,"adult","lp_3","lp_2"
15,219,1,619.6661,4,0,3,4,"adult","absent","lp_1"
15,220,1,745.734692,4,3,3,4,"adult","high_prob","lp_1"
15,221,1,642.755508,6,0,3,4,"adult","absent","lp_3"
15,222,1,598.834038,4,0,3,4,"adult","absent","lp_1"
15,223,1,589.159012,6,3,3,4,"adult","high_prob","lp_3"
15,224,1,531.501055,6,0,3,4,"adult","absent","lp_3"
15,225,1,1271.423817,1,5,3,4,"adult","lp_2","lp_2"
15,226,1,657.117844,4,0,3,4,"adult","absent","lp_1"
15,227,1,674.34907,1,0,3,4,"adult","absent","lp_2"
15,228,1,610.394001,4,3,3,4,"adult","high_prob","lp_1"
15,229,1,650.458813,3,0,3,4,"adult","absent","high_prob"
15,230,1,1013.852596,2,3,3,4,"adult","high_prob","lp_1"
15,231,1,634.487391,3,0,3,4,"adult","absent","high_prob"
15,232,1,728.7395,1,3,3,4,"adult","high_prob","lp_2"
15,233,1,772.59469,1,3,3,4,"adult","high_prob","lp_2"
15,234,1,973.803997,2,3,3,4,"adult","high_prob","lp_1"
15,235,0,662.932873,2,0,3,4,"adult","absent","lp_1"
15,236,1,839.455843,3,5,3,4,"adult","lp_2","high_prob"
15,237,1,643.123865,6,0,3,4,"adult","absent","lp_3"
15,238,1,575.62089,6,3,3,4,"adult","high_prob","lp_3"
15,239,1,786.138296,5,0,3,4,"adult","absent","lp_2"
15,240,1,1090.700865,2,4,3,4,"adult","lp_1","lp_1"
15,241,1,649.311781,6,0,3,5,"adult","absent","lp_3"
15,242,1,939.759016,3,2,3,5,"adult","lp_1","high_prob"
15,243,1,761.342287,4,1,3,5,"adult","lp_2","lp_1"
15,244,1,542.17577,4,0,3,5,"adult","absent","lp_1"
15,245,1,1296.815157,4,0,3,5,"adult","absent","lp_1"
15,246,1,799.567223,5,0,3,5,"adult","absent","lp_2"
15,247,1,741.935015,6,0,3,5,"adult","absent","lp_3"
15,248,1,771.584988,3,5,3,5,"adult","lp_2","high_prob"
15,249,1,750.313282,5,0,3,5,"adult","absent","lp_2"
15,250,1,1067.949057,1,3,3,5,"adult","high_prob","lp_2"
15,251,1,873.905897,2,0,3,5,"adult","absent","lp_1"
15,252,1,654.883146,6,0,3,5,"adult","absent","lp_3"
15,253,1,740.669727,2,0,3,5,"adult","absent","lp_1"
15,254,1,760.08296,3,0,3,5,"adult","absent","high_prob"
15,255,1,680.829287,4,0,3,5,"adult","absent","lp_1"
15,256,1,806.983232,3,0,3,5,"adult","absent","high_prob"
15,257,1,902.473211,1,0,3,5,"adult","absent","lp_2"
15,258,1,940.285921,2,3,3,5,"adult","high_prob","lp_1"
15,259,1,1455.224037,6,3,3,5,"adult","high_prob","lp_3"
15,260,1,1021.296978,5,3,3,5,"adult","high_prob","lp_2"
15,261,1,2499.201536,6,3,3,5,"adult","high_prob","lp_3"
15,262,1,676.644802,4,0,3,5,"adult","absent","lp_1"
15,263,1,991.195202,4,3,3,5,"adult","high_prob","lp_1"
15,264,1,770.410061,6,0,3,5,"adult","absent","lp_3"
15,265,1,761.09767,4,3,3,5,"adult","high_prob","lp_1"
15,266,1,779.00362,1,3,3,5,"adult","high_prob","lp_2"
15,267,1,616.065264,5,0,3,5,"adult","absent","lp_2"
15,268,1,591.481924,3,0,3,5,"adult","absent","high_prob"
15,269,1,500.259161,5,0,3,5,"adult","absent","lp_2"
15,270,1,719.689846,2,3,3,5,"adult","high_prob","lp_1"
15,271,1,678.107023,2,3,3,5,"adult","high_prob","lp_1"
15,272,1,557.355642,1,0,3,5,"adult","absent","lp_2"
15,273,0,778.01013,2,4,3,5,"adult","lp_1","lp_1"
15,274,1,953.83358,4,0,3,5,"adult","absent","lp_1"
15,275,1,1712.565184,4,3,3,5,"adult","high_prob","lp_1"
15,276,1,1066.184282,3,6,3,5,"adult","lp_3","high_prob"
15,277,1,980.651855,5,0,3,5,"adult","absent","lp_2"
15,278,1,859.41577,5,3,3,5,"adult","high_prob","lp_2"
15,279,1,935.634613,2,0,3,5,"adult","absent","lp_1"
15,280,1,1005.137205,2,0,3,5,"adult","absent","lp_1"
15,281,1,797.929049,1,5,3,5,"adult","lp_2","lp_2"
15,282,1,805.620193,1,3,3,5,"adult","high_prob","lp_2"
15,283,1,783.402443,3,0,3,5,"adult","absent","high_prob"
15,284,1,1088.017941,5,6,3,5,"adult","lp_3","lp_2"
15,285,1,1062.990189,3,4,3,5,"adult","lp_1","high_prob"
15,286,1,778.719902,1,0,3,5,"adult","absent","lp_2"
15,287,1,622.866154,6,3,3,5,"adult","high_prob","lp_3"
15,288,1,617.204189,4,3,3,5,"adult","high_prob","lp_1"
15,289,1,653.043509,5,3,3,5,"adult","high_prob","lp_2"
15,290,1,1026.032925,5,3,3,5,"adult","high_prob","lp_2"
15,291,1,676.665306,6,2,3,5,"adult","lp_1","lp_3"
15,292,1,1782.760382,1,3,3,5,"adult","high_prob","lp_2"
15,293,1,677.422047,6,3,3,5,"adult","high_prob","lp_3"
15,294,1,846.904755,2,0,3,5,"adult","absent","lp_1"
15,295,1,971.041203,3,1,3,5,"adult","lp_2","high_prob"
15,296,1,985.355616,1,0,3,5,"adult","absent","lp_2"
15,297,1,624.570131,3,0,3,5,"adult","absent","high_prob"
15,298,1,1691.551924,2,3,3,5,"adult","high_prob","lp_1"
15,299,1,839.152813,6,0,3,5,"adult","absent","lp_3"
15,300,1,543.11204,1,0,3,5,"adult","absent","lp_2"
15,301,1,953.002214,2,0,3,6,"adult","absent","lp_1"
15,302,1,908.645391,1,3,3,6,"adult","high_prob","lp_2"
15,303,1,791.295767,3,0,3,6,"adult","absent","high_prob"
15,304,1,663.40971,2,0,3,6,"adult","absent","lp_1"
15,305,1,669.088125,4,0,3,6,"adult","absent","lp_1"
15,306,1,944.972038,4,3,3,6,"adult","high_prob","lp_1"
15,307,1,664.067984,5,0,3,6,"adult","absent","lp_2"
15,308,1,564.44478,1,3,3,6,"adult","high_prob","lp_2"
15,309,1,730.432987,1,0,3,6,"adult","absent","lp_2"
15,310,1,724.439859,3,0,3,6,"adult","absent","high_prob"
15,311,1,1065.514565,6,2,3,6,"adult","lp_1","lp_3"
15,312,1,701.359034,1,0,3,6,"adult","absent","lp_2"
15,313,1,1089.183569,4,3,3,6,"adult","high_prob","lp_1"
15,314,1,631.848097,6,0,3,6,"adult","absent","lp_3"
15,315,0,1291.87417,6,3,3,6,"adult","high_prob","lp_3"
15,316,1,1131.386042,4,1,3,6,"adult","lp_2","lp_1"
15,317,1,2052.381277,2,0,3,6,"adult","absent","lp_1"
15,318,1,1870.839119,2,4,3,6,"adult","lp_1","lp_1"
15,319,1,845.174551,3,0,3,6,"adult","absent","high_prob"
15,320,1,774.380207,4,0,3,6,"adult","absent","lp_1"
15,321,1,928.986549,4,3,3,6,"adult","high_prob","lp_1"
15,322,1,944.493771,3,0,3,6,"adult","absent","high_prob"
15,323,1,1273.216009,1,3,3,6,"adult","high_prob","lp_2"
15,324,1,822.290897,5,0,3,6,"adult","absent","lp_2"
15,325,1,598.12355,3,0,3,6,"adult","absent","high_prob"
15,326,1,1311.197042,5,3,3,6,"adult","high_prob","lp_2"
15,327,1,1619.583845,5,6,3,6,"adult","lp_3","lp_2"
15,328,1,1174.483538,3,1,3,6,"adult","lp_2","high_prob"
15,329,1,1095.558405,2,0,3,6,"adult","absent","lp_1"
15,330,1,1384.047031,3,6,3,6,"adult","lp_3","high_prob"
15,331,1,938.342571,3,2,3,6,"adult","lp_1","high_prob"
15,332,1,872.766018,1,5,3,6,"adult","lp_2","lp_2"
15,333,1,857.074976,1,3,3,6,"adult","high_prob","lp_2"
15,334,1,1035.073757,6,3,3,6,"adult","high_prob","lp_3"
15,335,1,774.576664,6,0,3,6,"adult","absent","lp_3"
15,336,1,753.744125,2,3,3,6,"adult","high_prob","lp_1"
15,337,1,1462.181091,4,0,3,6,"adult","absent","lp_1"
15,338,1,1869.178295,6,0,3,6,"adult","absent","lp_3"
15,339,1,1075.469494,2,3,3,6,"adult","high_prob","lp_1"
15,340,1,1407.095194,2,3,3,6,"adult","high_prob","lp_1"
15,341,1,1243.41011,5,3,3,6,"adult","high_prob","lp_2"
15,342,1,774.574995,6,3,3,6,"adult","high_prob","lp_3"
15,343,1,832.032919,2,0,3,6,"adult","absent","lp_1"
15,344,1,831.255913,4,0,3,6,"adult","absent","lp_1"
15,345,1,1215.568304,3,4,3,6,"adult","lp_1","high_prob"
15,346,1,936.579943,4,3,3,6,"adult","high_prob","lp_1"
15,347,1,1781.811476,5,3,3,6,"adult","high_prob","lp_2"
15,348,1,765.896559,4,0,3,6,"adult","absent","lp_1"
15,349,1,922.043085,1,0,3,6,"adult","absent","lp_2"
15,350,1,942.952871,6,0,3,6,"adult","absent","lp_3"
15,351,1,789.683819,5,3,3,6,"adult","high_prob","lp_2"
15,352,1,619.924307,5,0,3,6,"adult","absent","lp_2"
15,353,1,745.92495,3,5,3,6,"adult","lp_2","high_prob"
15,354,1,663.617134,6,3,3,6,"adult","high_prob","lp_3"
15,355,1,1039.546728,5,0,3,6,"adult","absent","lp_2"
15,356,1,773.391962,2,3,3,6,"adult","high_prob","lp_1"
15,357,1,859.069824,6,0,3,6,"adult","absent","lp_3"
15,358,1,630.005598,1,0,3,6,"adult","absent","lp_2"
15,359,1,589.026928,5,0,3,6,"adult","absent","lp_2"
15,360,1,627.959013,1,0,3,6,"adult","absent","lp_2"
16,1,1,1130.525589,4,0,4,1,"adult","absent","high_prob"
16,2,1,976.347685,3,0,4,1,"adult","absent","lp_1"
16,3,1,1173.025846,3,4,4,1,"adult","high_prob","lp_1"
16,4,1,1136.855602,4,2,4,1,"adult","lp_2","high_prob"
16,5,1,1079.738855,6,0,4,1,"adult","absent","lp_2"
16,6,1,1471.471786,5,0,4,1,"adult","absent","lp_1"
16,7,1,1081.125259,3,4,4,1,"adult","high_prob","lp_1"
16,8,1,1020.077705,3,4,4,1,"adult","high_prob","lp_1"
16,9,1,1441.982985,3,0,4,1,"adult","absent","lp_1"
16,10,1,1261.588573,2,1,4,1,"adult","lp_3","lp_2"
16,11,1,1678.477764,2,4,4,1,"adult","high_prob","lp_2"
16,12,1,1263.401747,6,4,4,1,"adult","high_prob","lp_2"
16,13,1,884.336948,2,4,4,1,"adult","high_prob","lp_2"
16,14,1,1079.055309,2,4,4,1,"adult","high_prob","lp_2"
16,15,1,1320.337296,5,4,4,1,"adult","high_prob","lp_1"
16,16,1,1385.286093,1,0,4,1,"adult","absent","lp_3"
16,17,1,1460.346937,4,0,4,1,"adult","absent","high_prob"
16,18,1,1383.538246,3,0,4,1,"adult","absent","lp_1"
16,19,1,967.88764,6,0,4,1,"adult","absent","lp_2"
16,20,1,1642.869711,6,0,4,1,"adult","absent","lp_2"
16,21,1,1287.539482,1,4,4,1,"adult","high_prob","lp_3"
16,22,1,1467.849016,1,4,4,1,"adult","high_prob","lp_3"
16,23,1,1414.406776,3,4,4,1,"adult","high_prob","lp_1"
16,24,1,1571.233988,6,4,4,1,"adult","high_prob","lp_2"
16,25,1,1286.134958,5,0,4,1,"adult","absent","lp_1"
16,26,1,1145.520926,1,0,4,1,"adult","absent","lp_3"
16,27,1,1088.154078,3,4,4,1,"adult","high_prob","lp_1"
16,28,1,1173.171759,4,0,4,1,"adult","absent","high_prob"
16,29,1,1019.163847,1,0,4,1,"adult","absent","lp_3"
16,30,1,1220.502853,1,3,4,1,"adult","lp_1","lp_3"
16,31,1,1122.48826,3,0,4,1,"adult","absent","lp_1"
16,32,1,1151.910067,4,6,4,1,"adult","lp_2","high_prob"
16,33,1,969.565392,5,0,4,1,"adult","absent","lp_1"
16,34,1,1616.53018,1,4,4,1,"adult","high_prob","lp_3"
16,35,1,1463.454723,6,4,4,1,"adult","high_prob","lp_2"
16,36,1,1635.273933,1,0,4,1,"adult","absent","lp_3"
16,37,1,1420.164824,6,4,4,1,"adult","high_prob","lp_2"
16,38,1,1226.764679,6,2,4,1,"adult","lp_2","lp_2"
16,39,1,885.941505,2,0,4,1,"adult","absent","lp_2"
16,40,1,1778.315783,2,4,4,1,"adult","high_prob","lp_2"
16,41,1,1751.327753,4,3,4,1,"adult","lp_1","high_prob"
16,42,1,1054.107666,1,4,4,1,"adult","high_prob","lp_3"
16,43,1,1076.998711,4,5,4,1,"adult","lp_1","high_prob"
16,44,1,1176.646948,4,0,4,1,"adult","absent","high_prob"
16,45,1,1367.778063,2,0,4,1,"adult","absent","lp_2"
16,46,1,1252.321959,5,0,4,1,"adult","absent","lp_1"
16,47,1,2557.153225,2,0,4,1,"adult","absent","lp_2"
16,48,1,1114.80546,1,0,4,1,"adult","absent","lp_3"
16,49,1,1251.100302,5,4,4,1,"adult","high_prob","lp_1"
16,50,1,1499.396801,6,0,4,1,"adult","absent","lp_2"
16,51,1,1387.728691,5,6,4,1,"adult","lp_2","lp_1"
16,52,1,1818.256855,4,0,4,1,"adult","absent","high_prob"
16,53,1,1349.951029,3,0,4,1,"adult","absent","lp_1"
16,54,1,1278.022766,3,5,4,1,"adult","lp_1","lp_1"
16,55,1,832.448721,2,0,4,1,"adult","absent","lp_2"
16,56,1,781.469107,6,0,4,1,"adult","absent","lp_2"
16,57,1,720.489979,2,0,4,1,"adult","absent","lp_2"
16,58,1,901.400328,5,0,4,1,"adult","absent","lp_1"
16,59,1,1289.485216,4,1,4,1,"adult","lp_3","high_prob"
16,60,1,1047.447443,5,4,4,1,"adult","high_prob","lp_1"
16,61,1,1655.860662,3,4,4,2,"adult","high_prob","lp_1"
16,62,1,1434.185028,4,2,4,2,"adult","lp_2","high_prob"
16,63,1,1219.082832,3,0,4,2,"adult","absent","lp_1"
16,64,1,1791.133881,3,4,4,2,"adult","high_prob","lp_1"
16,65,1,1256.219625,1,4,4,2,"adult","high_prob","lp_3"
16,66,1,1317.440987,5,4,4,2,"adult","high_prob","lp_1"
16,67,1,1028.478384,6,4,4,2,"adult","high_prob","lp_2"
16,68,1,1053.115606,4,1,4,2,"adult","lp_3","high_prob"
16,69,1,1010.987997,3,0,4,2,"adult","absent","lp_1"
16,70,1,1267.378092,5,0,4,2,"adult","absent","lp_1"
16,71,1,1419.086218,2,4,4,2,"adult","high_prob","lp_2"
16,72,1,1165.872097,3,0,4,2,"adult","absent","lp_1"
16,73,1,1963.176012,1,4,4,2,"adult","high_prob","lp_3"
16,74,1,839.688301,4,0,4,2,"adult","absent","high_prob"
16,75,1,909.211159,3,5,4,2,"adult","lp_1","lp_1"
16,76,1,931.751013,2,0,4,2,"adult","absent","lp_2"
16,77,1,1006.569862,5,4,4,2,"adult","high_prob","lp_1"
16,78,1,1623.62504,4,5,4,2,"adult","lp_1","high_prob"
16,79,1,1615.625858,4,0,4,2,"adult","absent","high_prob"
16,80,1,1217.30423,5,0,4,2,"adult","absent","lp_1"
16,81,1,1393.895149,2,1,4,2,"adult","lp_3","lp_2"
16,82,1,1332.187891,3,0,4,2,"adult","absent","lp_1"
16,83,1,1257.246256,1,3,4,2,"adult","lp_1","lp_3"
16,84,1,1510.773659,1,4,4,2,"adult","high_prob","lp_3"
16,85,1,1337.270975,4,6,4,2,"adult","lp_2","high_prob"
16,86,1,1557.630539,5,4,4,2,"adult","high_prob","lp_1"
16,87,1,838.53507,6,0,4,2,"adult","absent","lp_2"
16,88,1,1971.519709,1,0,4,2,"adult","absent","lp_3"
16,89,1,1060.424805,6,0,4,2,"adult","absent","lp_2"
16,90,1,1842.905045,6,2,4,2,"adult","lp_2","lp_2"
16,91,1,1177.412987,2,0,4,2,"adult","absent","lp_2"
16,92,1,1888.065577,1,0,4,2,"adult","absent","lp_3"
16,93,1,1368.153572,2,4,4,2,"adult","high_prob","lp_2"
16,94,1,934.180975,6,4,4,2,"adult","high_prob","lp_2"
16,95,1,776.511908,1,4,4,2,"adult","high_prob","lp_3"
16,96,1,1643.431425,4,3,4,2,"adult","lp_1","high_prob"
16,97,1,1156.533718,5,0,4,2,"adult","absent","lp_1"
16,98,1,1580.136776,3,4,4,2,"adult","high_prob","lp_1"
16,99,1,1041.81242,1,0,4,2,"adult","absent","lp_3"
16,100,1,898.973703,6,0,4,2,"adult","absent","lp_2"
16,101,1,913.934946,6,0,4,2,"adult","absent","lp_2"
16,102,1,1466.053724,3,4,4,2,"adult","high_prob","lp_1"
16,103,1,839.705944,5,0,4,2,"adult","absent","lp_1"
16,104,1,1217.92984,6,4,4,2,"adult","high_prob","lp_2"
16,105,1,1850.277901,6,4,4,2,"adult","high_prob","lp_2"
16,106,1,747.709751,4,0,4,2,"adult","absent","high_prob"
16,107,1,1391.564846,3,4,4,2,"adult","high_prob","lp_1"
16,108,1,680.378914,4,0,4,2,"adult","absent","high_prob"
16,109,1,1004.884958,3,0,4,2,"adult","absent","lp_1"
16,110,0,777.881861,6,0,4,2,"adult","absent","lp_2"
16,111,1,1547.807932,5,0,4,2,"adult","absent","lp_1"
16,112,1,890.652895,2,0,4,2,"adult","absent","lp_2"
16,113,1,1520.793676,5,6,4,2,"adult","lp_2","lp_1"
16,114,1,1042.08231,2,0,4,2,"adult","absent","lp_2"
16,115,1,919.579744,1,0,4,2,"adult","absent","lp_3"
16,116,1,705.55687,1,0,4,2,"adult","absent","lp_3"
16,117,1,1206.67696,4,0,4,2,"adult","absent","high_prob"
16,118,1,1084.733248,2,0,4,2,"adult","absent","lp_2"
16,119,1,1530.59268,2,4,4,2,"adult","high_prob","lp_2"
16,120,1,1410.21657,2,4,4,2,"adult","high_prob","lp_2"
16,121,1,881.044388,5,0,4,3,"adult","absent","lp_1"
16,122,1,1072.746992,2,4,4,3,"adult","high_prob","lp_2"
16,123,1,957.103491,1,0,4,3,"adult","absent","lp_3"
16,124,1,879.779339,2,4,4,3,"adult","high_prob","lp_2"
16,125,1,1199.444056,5,4,4,3,"adult","high_prob","lp_1"
16,126,1,877.269268,5,6,4,3,"adult","lp_2","lp_1"
16,127,1,1047.222376,6,4,4,3,"adult","high_prob","lp_2"
16,128,1,761.247873,5,0,4,3,"adult","absent","lp_1"
16,129,1,1313.043833,4,5,4,3,"adult","lp_1","high_prob"
16,130,1,1509.783745,3,0,4,3,"adult","absent","lp_1"
16,131,1,1253.343105,2,0,4,3,"adult","absent","lp_2"
16,132,1,1355.250835,3,4,4,3,"adult","high_prob","lp_1"
16,133,1,1143.301964,3,5,4,3,"adult","lp_1","lp_1"
16,134,1,1461.917877,1,0,4,3,"adult","absent","lp_3"
16,135,1,1150.300741,5,4,4,3,"adult","high_prob","lp_1"
16,136,1,1758.751154,6,0,4,3,"adult","absent","lp_2"
16,137,1,1037.341833,4,6,4,3,"adult","lp_2","high_prob"
16,138,1,674.717665,4,0,4,3,"adult","absent","high_prob"
16,139,1,1549.674988,5,0,4,3,"adult","absent","lp_1"
16,140,1,877.450705,2,0,4,3,"adult","absent","lp_2"
16,141,1,888.882875,5,0,4,3,"adult","absent","lp_1"
16,142,1,693.48073,3,0,4,3,"adult","absent","lp_1"
16,143,1,755.876064,4,0,4,3,"adult","absent","high_prob"
16,144,1,1627.903938,4,3,4,3,"adult","lp_1","high_prob"
16,145,1,919.453382,5,4,4,3,"adult","high_prob","lp_1"
16,146,1,1170.781136,2,1,4,3,"adult","lp_3","lp_2"
16,147,1,1035.608053,2,0,4,3,"adult","absent","lp_2"
16,148,1,965.418816,1,3,4,3,"adult","lp_1","lp_3"
16,149,1,1272.241116,3,4,4,3,"adult","high_prob","lp_1"
16,150,1,853.702784,5,0,4,3,"adult","absent","lp_1"
16,151,1,861.834526,1,4,4,3,"adult","high_prob","lp_3"
16,152,1,913.086891,1,0,4,3,"adult","absent","lp_3"
16,153,1,1089.493513,2,0,4,3,"adult","absent","lp_2"
16,154,1,1810.086966,3,4,4,3,"adult","high_prob","lp_1"
16,155,1,903.381824,6,0,4,3,"adult","absent","lp_2"
16,156,1,1004.546404,4,2,4,3,"adult","lp_2","high_prob"
16,157,1,967.118025,3,0,4,3,"adult","absent","lp_1"
16,158,1,1333.907127,6,4,4,3,"adult","high_prob","lp_2"
16,159,1,1084.009647,1,4,4,3,"adult","high_prob","lp_3"
16,160,1,893.499613,6,0,4,3,"adult","absent","lp_2"
16,161,1,681.479931,4,0,4,3,"adult","absent","high_prob"
16,162,0,1436.459303,1,4,4,3,"adult","high_prob","lp_3"
16,163,1,2848.867893,2,4,4,3,"adult","high_prob","lp_2"
16,164,1,891.638041,6,4,4,3,"adult","high_prob","lp_2"
16,165,1,814.543962,6,0,4,3,"adult","absent","lp_2"
16,166,1,1055.737972,4,0,4,3,"adult","absent","high_prob"
16,167,1,758.833885,1,0,4,3,"adult","absent","lp_3"
16,168,1,906.152487,6,4,4,3,"adult","high_prob","lp_2"
16,169,1,742.214918,6,0,4,3,"adult","absent","lp_2"
16,170,1,1407.526493,3,4,4,3,"adult","high_prob","lp_1"
16,171,1,1124.169111,3,4,4,3,"adult","high_prob","lp_1"
16,172,1,970.378876,6,2,4,3,"adult","lp_2","lp_2"
16,173,1,792.164803,2,0,4,3,"adult","absent","lp_2"
16,174,1,899.554491,3,0,4,3,"adult","absent","lp_1"
16,175,1,1007.484198,1,0,4,3,"adult","absent","lp_3"
16,176,1,1005.604744,4,0,4,3,"adult","absent","high_prob"
16,177,1,906.817675,4,1,4,3,"adult","lp_3","high_prob"
16,178,1,1144.898653,2,4,4,3,"adult","high_prob","lp_2"
16,179,1,2049.297333,1,4,4,3,"adult","high_prob","lp_3"
16,180,1,1247.734308,3,0,4,3,"adult","absent","lp_1"
16,181,1,1060.179472,4,0,4,4,"adult","absent","high_prob"
16,182,1,1293.351412,2,4,4,4,"adult","high_prob","lp_2"
16,183,1,846.284866,2,0,4,4,"adult","absent","lp_2"
16,184,1,1074.983597,4,3,4,4,"adult","lp_1","high_prob"
16,185,1,1431.803465,6,4,4,4,"adult","high_prob","lp_2"
16,186,1,986.404419,4,5,4,4,"adult","lp_1","high_prob"
16,187,1,1071.505547,6,4,4,4,"adult","high_prob","lp_2"
16,188,1,1152.853489,5,0,4,4,"adult","absent","lp_1"
16,189,1,929.346085,2,4,4,4,"adult","high_prob","lp_2"
16,190,1,980.634689,4,0,4,4,"adult","absent","high_prob"
16,191,1,589.86783,1,0,4,4,"adult","absent","lp_3"
16,192,1,1147.44997,4,0,4,4,"adult","absent","high_prob"
16,193,1,1347.07427,6,0,4,4,"adult","absent","lp_2"
16,194,1,1442.77072,6,4,4,4,"adult","high_prob","lp_2"
16,195,1,968.061924,4,0,4,4,"adult","absent","high_prob"
16,196,1,2375.871181,6,2,4,4,"adult","lp_2","lp_2"
16,197,1,855.371237,4,6,4,4,"adult","lp_2","high_prob"
16,198,1,712.898254,2,0,4,4,"adult","absent","lp_2"
16,199,1,1059.284925,3,4,4,4,"adult","high_prob","lp_1"
16,200,1,1042.443752,3,0,4,4,"adult","absent","lp_1"
16,201,1,764.973164,1,0,4,4,"adult","absent","lp_3"
16,202,1,1201.653719,3,5,4,4,"adult","lp_1","lp_1"
16,203,1,1059.67617,1,0,4,4,"adult","absent","lp_3"
16,204,1,2169.117212,2,0,4,4,"adult","absent","lp_2"
16,205,1,1424.248695,3,0,4,4,"adult","absent","lp_1"
16,206,1,1405.910254,6,4,4,4,"adult","high_prob","lp_2"
16,207,1,1139.027119,3,0,4,4,"adult","absent","lp_1"
16,208,1,2643.743992,5,4,4,4,"adult","high_prob","lp_1"
16,209,1,824.069977,2,0,4,4,"adult","absent","lp_2"
16,210,0,1143.16535,3,4,4,4,"adult","high_prob","lp_1"
16,211,1,767.472267,6,0,4,4,"adult","absent","lp_2"
16,212,1,2836.091757,1,3,4,4,"adult","lp_1","lp_3"
16,213,1,2921.51475,1,4,4,4,"adult","high_prob","lp_3"
16,214,1,742.231607,2,4,4,4,"adult","high_prob","lp_2"
16,215,1,1026.73173,3,4,4,4,"adult","high_prob","lp_1"
16,216,1,1501.664162,4,1,4,4,"adult","lp_3","high_prob"
16,217,1,1855.624914,1,4,4,4,"adult","high_prob","lp_3"
16,218,1,846.80748,6,0,4,4,"adult","absent","lp_2"
16,219,1,1606.91452,2,1,4,4,"adult","lp_3","lp_2"
16,220,1,1674.010038,3,0,4,4,"adult","absent","lp_1"
16,221,1,1145.85495,1,4,4,4,"adult","high_prob","lp_3"
16,222,1,1399.294853,5,4,4,4,"adult","high_prob","lp_1"
16,223,1,924.210072,3,0,4,4,"adult","absent","lp_1"
16,224,1,1060.602903,5,6,4,4,"adult","lp_2","lp_1"
16,225,1,964.753389,5,0,4,4,"adult","absent","lp_1"
16,226,1,1226.448774,5,0,4,4,"adult","absent","lp_1"
16,227,1,1166.01634,1,0,4,4,"adult","absent","lp_3"
16,228,1,2045.509815,6,0,4,4,"adult","absent","lp_2"
16,229,1,1924.720287,2,0,4,4,"adult","absent","lp_2"
16,230,1,873.90399,6,0,4,4,"adult","absent","lp_2"
16,231,1,1015.305758,4,0,4,4,"adult","absent","high_prob"
16,232,1,1291.917324,4,2,4,4,"adult","lp_2","high_prob"
16,233,1,1465.766191,1,4,4,4,"adult","high_prob","lp_3"
16,234,1,1302.498579,3,4,4,4,"adult","high_prob","lp_1"
16,235,1,775.506973,5,0,4,4,"adult","absent","lp_1"
16,236,1,656.456947,5,0,4,4,"adult","absent","lp_1"
16,237,1,937.927961,5,4,4,4,"adult","high_prob","lp_1"
16,238,1,671.619892,1,0,4,4,"adult","absent","lp_3"
16,239,1,1694.224596,2,4,4,4,"adult","high_prob","lp_2"
16,240,1,1177.483082,3,4,4,4,"adult","high_prob","lp_1"
16,241,1,1007.251978,4,0,4,5,"adult","absent","high_prob"
16,242,1,959.973812,4,0,4,5,"adult","absent","high_prob"
16,243,1,1134.625196,4,0,4,5,"adult","absent","high_prob"
16,244,1,1009.058714,5,4,4,5,"adult","high_prob","lp_1"
16,245,1,782.038927,2,0,4,5,"adult","absent","lp_2"
16,246,1,818.538904,5,0,4,5,"adult","absent","lp_1"
16,247,1,812.650919,2,4,4,5,"adult","high_prob","lp_2"
16,248,1,688.784361,4,0,4,5,"adult","absent","high_prob"
16,249,1,707.833052,2,0,4,5,"adult","absent","lp_2"
16,250,1,889.395237,6,4,4,5,"adult","high_prob","lp_2"
16,251,1,1291.676283,6,4,4,5,"adult","high_prob","lp_2"
16,252,1,1032.497883,1,0,4,5,"adult","absent","lp_3"
16,253,1,1022.21489,2,4,4,5,"adult","high_prob","lp_2"
16,254,1,768.502474,6,0,4,5,"adult","absent","lp_2"
16,255,1,879.555225,2,0,4,5,"adult","absent","lp_2"
16,256,1,1029.259205,5,0,4,5,"adult","absent","lp_1"
16,257,1,833.948374,1,4,4,5,"adult","high_prob","lp_3"
16,258,1,863.096714,6,2,4,5,"adult","lp_2","lp_2"
16,259,1,1071.278811,5,0,4,5,"adult","absent","lp_1"
16,260,1,1456.851959,3,0,4,5,"adult","absent","lp_1"
16,261,1,1039.680958,1,0,4,5,"adult","absent","lp_3"
16,262,1,947.926998,6,4,4,5,"adult","high_prob","lp_2"
16,263,1,707.362413,2,4,4,5,"adult","high_prob","lp_2"
16,264,1,913.300514,5,0,4,5,"adult","absent","lp_1"
16,265,1,704.202175,6,0,4,5,"adult","absent","lp_2"
16,266,1,1122.517824,3,4,4,5,"adult","high_prob","lp_1"
16,267,1,1083.548546,4,0,4,5,"adult","absent","high_prob"
16,268,1,757.984161,6,0,4,5,"adult","absent","lp_2"
16,269,1,663.943291,6,4,4,5,"adult","high_prob","lp_2"
16,270,1,797.395945,3,0,4,5,"adult","absent","lp_1"
16,271,1,1088.475704,5,6,4,5,"adult","lp_2","lp_1"
16,272,1,898.137093,3,4,4,5,"adult","high_prob","lp_1"
16,273,1,675.617456,3,0,4,5,"adult","absent","lp_1"
16,274,1,801.761866,1,4,4,5,"adult","high_prob","lp_3"
16,275,1,1264.68873,4,3,4,5,"adult","lp_1","high_prob"
16,276,1,890.889645,4,5,4,5,"adult","lp_1","high_prob"
16,277,1,953.607798,5,0,4,5,"adult","absent","lp_1"
16,278,1,1562.488317,1,3,4,5,"adult","lp_1","lp_3"
16,279,1,1049.048185,5,4,4,5,"adult","high_prob","lp_1"
16,280,1,1162.480354,4,2,4,5,"adult","lp_2","high_prob"
16,281,1,1150.688887,3,4,4,5,"adult","high_prob","lp_1"
16,282,1,1168.938637,3,5,4,5,"adult","lp_1","lp_1"
16,283,1,1058.517933,2,1,4,5,"adult","lp_3","lp_2"
16,284,1,936.319113,1,0,4,5,"adult","absent","lp_3"
16,285,1,1040.980577,1,4,4,5,"adult","high_prob","lp_3"
16,286,1,940.99164,1,0,4,5,"adult","absent","lp_3"
16,287,1,1083.863974,4,1,4,5,"adult","lp_3","high_prob"
16,288,1,1414.265156,5,4,4,5,"adult","high_prob","lp_1"
16,289,1,700.664043,3,0,4,5,"adult","absent","lp_1"
16,290,1,733.217955,6,0,4,5,"adult","absent","lp_2"
16,291,1,687.773705,2,0,4,5,"adult","absent","lp_2"
16,292,1,626.832962,6,0,4,5,"adult","absent","lp_2"
16,293,1,1042.01889,2,4,4,5,"adult","high_prob","lp_2"
16,294,1,825.029373,1,0,4,5,"adult","absent","lp_3"
16,295,1,731.294155,1,4,4,5,"adult","high_prob","lp_3"
16,296,1,791.04495,2,0,4,5,"adult","absent","lp_2"
16,297,1,1205.982924,3,4,4,5,"adult","high_prob","lp_1"
16,298,1,832.365274,3,4,4,5,"adult","high_prob","lp_1"
16,299,1,1692.689896,4,6,4,5,"adult","lp_2","high_prob"
16,300,1,832.09157,3,0,4,5,"adult","absent","lp_1"
16,301,1,932.571411,2,4,4,6,"adult","high_prob","lp_2"
16,302,1,738.350868,1,0,4,6,"adult","absent","lp_3"
16,303,1,1241.581678,4,6,4,6,"adult","lp_2","high_prob"
16,304,1,725.668192,2,0,4,6,"adult","absent","lp_2"
16,305,1,649.630785,1,4,4,6,"adult","high_prob","lp_3"
16,306,1,797.543287,4,0,4,6,"adult","absent","high_prob"
16,307,1,765.136719,4,0,4,6,"adult","absent","high_prob"
16,308,1,901.359797,3,4,4,6,"adult","high_prob","lp_1"
16,309,1,643.882036,6,0,4,6,"adult","absent","lp_2"
16,310,1,933.531284,5,0,4,6,"adult","absent","lp_1"
16,311,1,973.008394,5,4,4,6,"adult","high_prob","lp_1"
16,312,1,847.347021,2,0,4,6,"adult","absent","lp_2"
16,313,1,809.756041,1,4,4,6,"adult","high_prob","lp_3"
16,314,1,1327.996016,1,4,4,6,"adult","high_prob","lp_3"
16,315,1,1267.786741,4,3,4,6,"adult","lp_1","high_prob"
16,316,1,878.791809,5,0,4,6,"adult","absent","lp_1"
16,317,1,1228.623867,2,4,4,6,"adult","high_prob","lp_2"
16,318,1,1415.6425,4,2,4,6,"adult","lp_2","high_prob"
16,319,1,706.185341,6,0,4,6,"adult","absent","lp_2"
16,320,1,947.668552,3,0,4,6,"adult","absent","lp_1"
16,321,1,1836.493969,2,1,4,6,"adult","lp_3","lp_2"
16,322,1,695.448875,6,0,4,6,"adult","absent","lp_2"
16,323,1,995.146275,4,0,4,6,"adult","absent","high_prob"
16,324,1,1528.512001,5,0,4,6,"adult","absent","lp_1"
16,325,1,1859.178782,3,0,4,6,"adult","absent","lp_1"
16,326,1,646.494865,2,4,4,6,"adult","high_prob","lp_2"
16,327,1,979.341269,5,0,4,6,"adult","absent","lp_1"
16,328,1,823.594093,6,0,4,6,"adult","absent","lp_2"
16,329,1,1255.409479,6,4,4,6,"adult","high_prob","lp_2"
16,330,1,1241.871119,3,0,4,6,"adult","absent","lp_1"
16,331,1,881.05607,5,4,4,6,"adult","high_prob","lp_1"
16,332,1,790.497541,1,0,4,6,"adult","absent","lp_3"
16,333,1,622.713327,2,0,4,6,"adult","absent","lp_2"
16,334,1,1018.685818,3,4,4,6,"adult","high_prob","lp_1"
16,335,1,854.605198,2,0,4,6,"adult","absent","lp_2"
16,336,1,1392.859459,4,1,4,6,"adult","lp_3","high_prob"
16,337,1,785.429716,3,0,4,6,"adult","absent","lp_1"
16,338,1,849.698782,3,5,4,6,"adult","lp_1","lp_1"
16,339,1,807.274103,6,2,4,6,"adult","lp_2","lp_2"
16,340,1,743.253946,4,0,4,6,"adult","absent","high_prob"
16,341,1,832.531691,3,4,4,6,"adult","high_prob","lp_1"
16,342,1,906.918049,5,4,4,6,"adult","high_prob","lp_1"
16,343,1,840.074539,1,4,4,6,"adult","high_prob","lp_3"
16,344,1,1252.732992,1,3,4,6,"adult","lp_1","lp_3"
16,345,1,685.251474,6,4,4,6,"adult","high_prob","lp_2"
16,346,1,634.624958,1,0,4,6,"adult","absent","lp_3"
16,347,1,1034.490347,4,0,4,6,"adult","absent","high_prob"
16,348,1,1009.120464,5,6,4,6,"adult","lp_2","lp_1"
16,349,1,700.883627,2,4,4,6,"adult","high_prob","lp_2"
16,350,1,862.77914,6,0,4,6,"adult","absent","lp_2"
16,351,1,1094.027996,3,4,4,6,"adult","high_prob","lp_1"
16,352,1,1078.750134,6,4,4,6,"adult","high_prob","lp_2"
16,353,1,602.781057,6,4,4,6,"adult","high_prob","lp_2"
16,354,1,825.750113,1,0,4,6,"adult","absent","lp_3"
16,355,1,660.001516,2,0,4,6,"adult","absent","lp_2"
16,356,1,1208.130121,4,5,4,6,"adult","lp_1","high_prob"
16,357,1,1024.542809,5,0,4,6,"adult","absent","lp_1"
16,358,1,991.122246,3,4,4,6,"adult","high_prob","lp_1"
16,359,1,1294.642687,3,0,4,6,"adult","absent","lp_1"
16,360,1,757.461786,1,0,4,6,"adult","absent","lp_3"
18,1,1,732.109547,2,0,2,1,"adult","absent","high_prob"
18,2,1,631.168365,1,0,2,1,"adult","absent","lp_1"
18,3,1,1185.793638,4,2,2,1,"adult","high_prob","lp_2"
18,4,1,709.875822,4,1,2,1,"adult","lp_1","lp_2"
18,5,1,1311.613083,5,2,2,1,"adult","high_prob","lp_3"
18,6,1,959.3153,1,2,2,1,"adult","high_prob","lp_1"
18,7,1,739.967823,4,2,2,1,"adult","high_prob","lp_2"
18,8,1,608.74486,6,0,2,1,"adult","absent","lp_2"
18,9,1,830.037117,4,0,2,1,"adult","absent","lp_2"
18,10,1,794.038296,3,2,2,1,"adult","high_prob","lp_1"
18,11,1,1003.737926,2,0,2,1,"adult","absent","high_prob"
18,12,1,909.524202,1,0,2,1,"adult","absent","lp_1"
18,13,1,857.031822,1,0,2,1,"adult","absent","lp_1"
18,14,1,868.088961,3,0,2,1,"adult","absent","lp_1"
18,15,1,1354.559183,2,6,2,1,"adult","lp_2","high_prob"
18,16,1,1522.875786,6,2,2,1,"adult","high_prob","lp_2"
18,17,1,834.001303,4,0,2,1,"adult","absent","lp_2"
18,18,1,727.713346,2,3,2,1,"adult","lp_1","high_prob"
18,19,1,886.746168,4,0,2,1,"adult","absent","lp_2"
18,20,1,1126.308918,1,2,2,1,"adult","high_prob","lp_1"
18,21,1,1668.578386,4,0,2,1,"adult","absent","lp_2"
18,22,1,962.731123,6,0,2,1,"adult","absent","lp_2"
18,23,1,983.909607,6,2,2,1,"adult","high_prob","lp_2"
18,24,0,1018.259764,5,0,2,1,"adult","absent","lp_3"
18,25,1,1054.455042,6,2,2,1,"adult","high_prob","lp_2"
18,26,1,856.567621,3,0,2,1,"adult","absent","lp_1"
18,27,1,934.630394,6,0,2,1,"adult","absent","lp_2"
18,28,1,611.63044,6,2,2,1,"adult","high_prob","lp_2"
18,29,1,808.943748,4,2,2,1,"adult","high_prob","lp_2"
18,30,1,544.776678,5,2,2,1,"adult","high_prob","lp_3"
18,31,1,1022.816658,5,2,2,1,"adult","high_prob","lp_3"
18,32,1,528.245211,2,0,2,1,"adult","absent","high_prob"
18,33,1,887.160063,4,0,2,1,"adult","absent","lp_2"
18,34,1,1032.066584,2,4,2,1,"adult","lp_2","high_prob"
18,35,1,715.968132,3,0,2,1,"adult","absent","lp_1"
18,36,1,771.555901,4,2,2,1,"adult","high_prob","lp_2"
18,37,1,967.597961,1,5,2,1,"adult","lp_3","lp_1"
18,38,1,703.277111,3,2,2,1,"adult","high_prob","lp_1"
18,39,1,1131.230116,3,4,2,1,"adult","lp_2","lp_1"
18,40,1,770.571947,1,2,2,1,"adult","high_prob","lp_1"
18,41,1,821.547508,6,0,2,1,"adult","absent","lp_2"
18,42,1,710.370302,5,6,2,1,"adult","lp_2","lp_3"
18,43,1,762.904882,5,0,2,1,"adult","absent","lp_3"
18,44,1,678.597927,3,2,2,1,"adult","high_prob","lp_1"
18,45,1,837.623596,5,0,2,1,"adult","absent","lp_3"
18,46,1,942.207575,5,0,2,1,"adult","absent","lp_3"
18,47,1,549.7756,3,0,2,1,"adult","absent","lp_1"
18,48,1,612.12182,6,0,2,1,"adult","absent","lp_2"
18,49,1,664.262295,1,0,2,1,"adult","absent","lp_1"
18,50,1,890.216827,2,5,2,1,"adult","lp_3","high_prob"
18,51,1,617.815018,1,0,2,1,"adult","absent","lp_1"
18,52,1,603.21188,1,2,2,1,"adult","high_prob","lp_1"
18,53,0,630.642891,2,0,2,1,"adult","absent","high_prob"
18,54,1,1115.248203,3,0,2,1,"adult","absent","lp_1"
18,55,1,660.907745,6,3,2,1,"adult","lp_1","lp_2"
18,56,1,1043.560982,3,2,2,1,"adult","high_prob","lp_1"
18,57,1,690.776825,5,0,2,1,"adult","absent","lp_3"
18,58,1,1505.935192,5,2,2,1,"adult","high_prob","lp_3"
18,59,1,566.783905,2,0,2,1,"adult","absent","high_prob"
18,60,1,711.97176,2,1,2,1,"adult","lp_1","high_prob"
18,61,1,714.214563,2,1,2,2,"adult","lp_1","high_prob"
18,62,1,599.377394,2,0,2,2,"adult","absent","high_prob"
18,63,1,1347.480774,6,3,2,2,"adult","lp_1","lp_2"
18,64,1,632.348776,3,0,2,2,"adult","absent","lp_1"
18,65,1,729.264498,5,2,2,2,"adult","high_prob","lp_3"
18,66,1,843.653917,5,6,2,2,"adult","lp_2","lp_3"
18,67,1,688.171864,6,0,2,2,"adult","absent","lp_2"
18,68,1,970.684767,4,0,2,2,"adult","absent","lp_2"
18,69,1,576.117754,3,0,2,2,"adult","absent","lp_1"
18,70,1,795.520067,5,0,2,2,"adult","absent","lp_3"
18,71,1,704.426765,4,2,2,2,"adult","high_prob","lp_2"
18,72,1,965.17992,4,2,2,2,"adult","high_prob","lp_2"
18,73,1,890.855074,1,0,2,2,"adult","absent","lp_1"
18,74,1,774.969816,1,2,2,2,"adult","high_prob","lp_1"
18,75,1,879.251003,5,0,2,2,"adult","absent","lp_3"
18,76,1,1072.741985,1,0,2,2,"adult","absent","lp_1"
18,77,0,942.152977,6,0,2,2,"adult","absent","lp_2"
18,78,1,1745.02635,3,2,2,2,"adult","high_prob","lp_1"
18,79,1,1733.608961,3,2,2,2,"adult","high_prob","lp_1"
18,80,0,1689.106941,3,2,2,2,"adult","high_prob","lp_1"
18,81,1,1118.23225,6,0,2,2,"adult","absent","lp_2"
18,82,1,1619.910002,3,0,2,2,"adult","absent","lp_1"
18,83,1,1399.943113,5,2,2,2,"adult","high_prob","lp_3"
18,84,1,977.760792,2,0,2,2,"adult","absent","high_prob"
18,85,1,1494.260073,1,5,2,2,"adult","lp_3","lp_1"
18,86,1,831.933975,4,0,2,2,"adult","absent","lp_2"
18,87,1,966.555834,2,0,2,2,"adult","absent","high_prob"
18,88,1,2534.18684,3,4,2,2,"adult","lp_2","lp_1"
18,89,1,915.634871,4,2,2,2,"adult","high_prob","lp_2"
18,90,1,1239.904881,2,4,2,2,"adult","lp_2","high_prob"
18,91,1,786.178112,1,0,2,2,"adult","absent","lp_1"
18,92,1,1529.297829,5,2,2,2,"adult","high_prob","lp_3"
18,93,1,1554.502964,4,1,2,2,"adult","lp_1","lp_2"
18,94,1,1182.177782,1,2,2,2,"adult","high_prob","lp_1"
18,95,1,1952.836037,5,0,2,2,"adult","absent","lp_3"
18,96,1,1044.560909,4,0,2,2,"adult","absent","lp_2"
18,97,1,1899.649858,3,0,2,2,"adult","absent","lp_1"
18,98,1,1718.20879,6,2,2,2,"adult","high_prob","lp_2"
18,99,1,1401.776075,5,0,2,2,"adult","absent","lp_3"
18,100,1,1472.754002,5,2,2,2,"adult","high_prob","lp_3"
18,101,1,762.434006,4,0,2,2,"adult","absent","lp_2"
18,102,1,1063.620567,4,2,2,2,"adult","high_prob","lp_2"
18,103,1,861.514091,1,2,2,2,"adult","high_prob","lp_1"
18,104,1,1267.813921,3,2,2,2,"adult","high_prob","lp_1"
18,105,1,983.941317,5,0,2,2,"adult","absent","lp_3"
18,106,1,1073.308945,6,0,2,2,"adult","absent","lp_2"
18,107,1,1008.118629,3,0,2,2,"adult","absent","lp_1"
18,108,1,810.720205,1,2,2,2,"adult","high_prob","lp_1"
18,109,1,781.735897,6,0,2,2,"adult","absent","lp_2"
18,110,1,580.605984,2,0,2,2,"adult","absent","high_prob"
18,111,1,604.772091,1,0,2,2,"adult","absent","lp_1"
18,112,1,1402.703047,1,0,2,2,"adult","absent","lp_1"
18,113,1,745.111704,6,2,2,2,"adult","high_prob","lp_2"
18,114,1,793.013096,4,0,2,2,"adult","absent","lp_2"
18,115,1,982.544184,2,5,2,2,"adult","lp_3","high_prob"
18,116,1,806.966066,6,2,2,2,"adult","high_prob","lp_2"
18,117,1,572.73531,2,0,2,2,"adult","absent","high_prob"
18,118,1,1689.384937,2,6,2,2,"adult","lp_2","high_prob"
18,119,1,1101.270914,6,2,2,2,"adult","high_prob","lp_2"
18,120,1,1861.571074,2,3,2,2,"adult","lp_1","high_prob"
18,121,1,850.42882,4,0,2,3,"adult","absent","lp_2"
18,122,1,822.850943,5,0,2,3,"adult","absent","lp_3"
18,123,1,638.666868,3,2,2,3,"adult","high_prob","lp_1"
18,124,1,948.064804,1,0,2,3,"adult","absent","lp_1"
18,125,1,815.543652,5,0,2,3,"adult","absent","lp_3"
18,126,1,711.365223,5,2,2,3,"adult","high_prob","lp_3"
18,127,1,527.041912,5,0,2,3,"adult","absent","lp_3"
18,128,1,1017.768145,2,3,2,3,"adult","lp_1","high_prob"
18,129,1,1529.84643,2,6,2,3,"adult","lp_2","high_prob"
18,130,1,1682.115316,1,0,2,3,"adult","absent","lp_1"
18,131,1,1359.658957,6,0,2,3,"adult","absent","lp_2"
18,132,1,905.935049,1,2,2,3,"adult","high_prob","lp_1"
18,133,1,908.621788,3,0,2,3,"adult","absent","lp_1"
18,134,1,939.638376,6,2,2,3,"adult","high_prob","lp_2"
18,135,1,990.843773,5,2,2,3,"adult","high_prob","lp_3"
18,136,1,1344.468832,4,0,2,3,"adult","absent","lp_2"
18,137,1,716.164112,4,2,2,3,"adult","high_prob","lp_2"
18,138,1,746.740103,4,0,2,3,"adult","absent","lp_2"
18,139,1,859.248877,4,2,2,3,"adult","high_prob","lp_2"
18,140,1,955.418587,6,0,2,3,"adult","absent","lp_2"
18,141,1,1208.310604,1,2,2,3,"adult","high_prob","lp_1"
18,142,1,1776.83115,2,0,2,3,"adult","absent","high_prob"
18,143,1,1171.728849,1,0,2,3,"adult","absent","lp_1"
18,144,1,1008.064985,3,0,2,3,"adult","absent","lp_1"
18,145,1,713.58037,6,2,2,3,"adult","high_prob","lp_2"
18,146,1,734.452963,2,0,2,3,"adult","absent","high_prob"
18,147,1,884.123564,4,2,2,3,"adult","high_prob","lp_2"
18,148,1,1118.39819,6,0,2,3,"adult","absent","lp_2"
18,149,1,1019.726992,1,2,2,3,"adult","high_prob","lp_1"
18,150,1,955.946922,1,2,2,3,"adult","high_prob","lp_1"
18,151,1,914.089918,2,0,2,3,"adult","absent","high_prob"
18,152,1,1084.994555,3,4,2,3,"adult","lp_2","lp_1"
18,153,1,829.128742,4,1,2,3,"adult","lp_1","lp_2"
18,154,1,643.227816,3,0,2,3,"adult","absent","lp_1"
18,155,1,740.888834,3,0,2,3,"adult","absent","lp_1"
18,156,1,719.879627,6,3,2,3,"adult","lp_1","lp_2"
18,157,1,915.86113,2,0,2,3,"adult","absent","high_prob"
18,158,1,1382.594824,2,0,2,3,"adult","absent","high_prob"
18,159,1,749.053478,4,2,2,3,"adult","high_prob","lp_2"
18,160,1,989.920616,2,5,2,3,"adult","lp_3","high_prob"
18,161,1,707.625389,3,2,2,3,"adult","high_prob","lp_1"
18,162,1,900.365114,3,2,2,3,"adult","high_prob","lp_1"
18,163,1,998.334885,6,2,2,3,"adult","high_prob","lp_2"
18,164,1,936.246395,2,1,2,3,"adult","lp_1","high_prob"
18,165,1,1061.036825,1,5,2,3,"adult","lp_3","lp_1"
18,166,1,882.199526,1,0,2,3,"adult","absent","lp_1"
18,167,1,821.661234,5,0,2,3,"adult","absent","lp_3"
18,168,1,732.467651,1,0,2,3,"adult","absent","lp_1"
18,169,1,1117.595911,3,2,2,3,"adult","high_prob","lp_1"
18,170,0,602.96011,5,6,2,3,"adult","lp_2","lp_3"
18,171,1,2147.345543,2,4,2,3,"adult","lp_2","high_prob"
18,172,1,671.844721,5,2,2,3,"adult","high_prob","lp_3"
18,173,1,560.192108,4,0,2,3,"adult","absent","lp_2"
18,174,1,743.523121,3,0,2,3,"adult","absent","lp_1"
18,175,1,623.859406,5,0,2,3,"adult","absent","lp_3"
18,176,1,1660.823107,6,2,2,3,"adult","high_prob","lp_2"
18,177,1,631.952286,4,0,2,3,"adult","absent","lp_2"
18,178,1,886.570692,6,0,2,3,"adult","absent","lp_2"
18,179,1,1166.35251,6,0,2,3,"adult","absent","lp_2"
18,180,1,606.925726,5,2,2,3,"adult","high_prob","lp_3"
18,181,1,535.463095,2,0,2,4,"adult","absent","high_prob"
18,182,1,569.680691,1,0,2,4,"adult","absent","lp_1"
18,183,1,950.470209,6,2,2,4,"adult","high_prob","lp_2"
18,184,1,843.063354,2,0,2,4,"adult","absent","high_prob"
18,185,1,681.979418,1,0,2,4,"adult","absent","lp_1"
18,186,1,1271.817923,3,2,2,4,"adult","high_prob","lp_1"
18,187,1,830.876112,5,2,2,4,"adult","high_prob","lp_3"
18,188,1,569.849968,5,0,2,4,"adult","absent","lp_3"
18,189,1,850.891352,4,0,2,4,"adult","absent","lp_2"
18,190,1,658.501863,2,6,2,4,"adult","lp_2","high_prob"
18,191,1,1191.448212,3,0,2,4,"adult","absent","lp_1"
18,192,1,808.978558,2,0,2,4,"adult","absent","high_prob"
18,193,1,901.849031,3,0,2,4,"adult","absent","lp_1"
18,194,1,699.371338,5,2,2,4,"adult","high_prob","lp_3"
18,195,1,1427.765608,5,0,2,4,"adult","absent","lp_3"
18,196,1,601.839066,6,0,2,4,"adult","absent","lp_2"
18,197,1,799.685478,6,3,2,4,"adult","lp_1","lp_2"
18,198,0,912.187338,6,2,2,4,"adult","high_prob","lp_2"
18,199,1,642.859697,3,0,2,4,"adult","absent","lp_1"
18,200,1,845.530033,3,2,2,4,"adult","high_prob","lp_1"
18,201,1,1225.203514,5,0,2,4,"adult","absent","lp_3"
18,202,1,829.42462,1,2,2,4,"adult","high_prob","lp_1"
18,203,1,959.261894,4,2,2,4,"adult","high_prob","lp_2"
18,204,1,586.486816,6,0,2,4,"adult","absent","lp_2"
18,205,1,1756.857634,3,4,2,4,"adult","lp_2","lp_1"
18,206,1,1383.023739,5,2,2,4,"adult","high_prob","lp_3"
18,207,1,1067.846775,3,2,2,4,"adult","high_prob","lp_1"
18,208,1,909.024,2,0,2,4,"adult","absent","high_prob"
18,209,1,716.175079,6,0,2,4,"adult","absent","lp_2"
18,210,1,912.079096,4,2,2,4,"adult","high_prob","lp_2"
18,211,1,1153.612852,6,0,2,4,"adult","absent","lp_2"
18,212,1,956.422091,3,2,2,4,"adult","high_prob","lp_1"
18,213,1,927.551031,3,0,2,4,"adult","absent","lp_1"
18,214,1,1529.281616,4,2,2,4,"adult","high_prob","lp_2"
18,215,1,773.523569,4,2,2,4,"adult","high_prob","lp_2"
18,216,1,587.342262,2,3,2,4,"adult","lp_1","high_prob"
18,217,1,906.692266,1,2,2,4,"adult","high_prob","lp_1"
18,218,1,723.834753,6,0,2,4,"adult","absent","lp_2"
18,219,1,768.214226,4,1,2,4,"adult","lp_1","lp_2"
18,220,1,788.984537,5,0,2,4,"adult","absent","lp_3"
18,221,1,928.548813,4,0,2,4,"adult","absent","lp_2"
18,222,1,1037.914276,1,2,2,4,"adult","high_prob","lp_1"
18,223,1,697.124004,1,0,2,4,"adult","absent","lp_1"
18,224,1,799.572706,5,6,2,4,"adult","lp_2","lp_3"
18,225,1,1077.508688,2,1,2,4,"adult","lp_1","high_prob"
18,226,1,694.023848,6,2,2,4,"adult","high_prob","lp_2"
18,227,1,711.03096,4,0,2,4,"adult","absent","lp_2"
18,228,1,681.996822,4,0,2,4,"adult","absent","lp_2"
18,229,1,705.926895,2,0,2,4,"adult","absent","high_prob"
18,230,1,1414.508343,2,4,2,4,"adult","lp_2","high_prob"
18,231,1,790.282726,6,2,2,4,"adult","high_prob","lp_2"
18,232,1,1420.282841,5,0,2,4,"adult","absent","lp_3"
18,233,1,709.182739,1,0,2,4,"adult","absent","lp_1"
18,234,1,1207.658291,1,5,2,4,"adult","lp_3","lp_1"
18,235,1,678.47085,2,5,2,4,"adult","lp_3","high_prob"
18,236,1,568.840027,1,0,2,4,"adult","absent","lp_1"
18,237,1,653.043747,3,0,2,4,"adult","absent","lp_1"
18,238,1,1040.836334,5,2,2,4,"adult","high_prob","lp_3"
18,239,1,865.104675,1,2,2,4,"adult","high_prob","lp_1"
18,240,1,770.933867,4,0,2,4,"adult","absent","lp_2"
18,241,1,874.988794,6,2,2,5,"adult","high_prob","lp_2"
18,242,1,706.033707,5,2,2,5,"adult","high_prob","lp_3"
18,243,1,532.989025,1,0,2,5,"adult","absent","lp_1"
18,244,1,536.571741,3,2,2,5,"adult","high_prob","lp_1"
18,245,1,489.048004,2,4,2,5,"adult","lp_2","high_prob"
18,246,1,518.007517,4,0,2,5,"adult","absent","lp_2"
18,247,1,923.855782,3,0,2,5,"adult","absent","lp_1"
18,248,1,819.923878,4,0,2,5,"adult","absent","lp_2"
18,249,1,733.745575,6,0,2,5,"adult","absent","lp_2"
18,250,1,1033.270836,2,6,2,5,"adult","lp_2","high_prob"
18,251,1,692.719698,3,0,2,5,"adult","absent","lp_1"
18,252,1,1042.426348,5,0,2,5,"adult","absent","lp_3"
18,253,1,960.243702,6,3,2,5,"adult","lp_1","lp_2"
18,254,1,549.952269,3,0,2,5,"adult","absent","lp_1"
18,255,1,775.124073,4,2,2,5,"adult","high_prob","lp_2"
18,256,1,599.297047,3,0,2,5,"adult","absent","lp_1"
18,257,1,701.843023,1,0,2,5,"adult","absent","lp_1"
18,258,1,779.09255,4,2,2,5,"adult","high_prob","lp_2"
18,259,1,1621.273756,4,2,2,5,"adult","high_prob","lp_2"
18,260,1,1065.609455,3,2,2,5,"adult","high_prob","lp_1"
18,261,1,616.645813,3,2,2,5,"adult","high_prob","lp_1"
18,262,1,827.932119,1,0,2,5,"adult","absent","lp_1"
18,263,1,1087.789059,3,2,2,5,"adult","high_prob","lp_1"
18,264,1,957.331181,6,0,2,5,"adult","absent","lp_2"
18,265,1,720.017672,1,0,2,5,"adult","absent","lp_1"
18,266,1,874.339819,5,2,2,5,"adult","high_prob","lp_3"
18,267,1,680.076122,2,0,2,5,"adult","absent","high_prob"
18,268,1,939.697981,5,6,2,5,"adult","lp_2","lp_3"
18,269,1,763.897181,4,1,2,5,"adult","lp_1","lp_2"
18,270,1,945.055962,6,0,2,5,"adult","absent","lp_2"
18,271,1,632.639885,1,5,2,5,"adult","lp_3","lp_1"
18,272,1,657.1033,5,0,2,5,"adult","absent","lp_3"
18,273,1,559.551001,5,2,2,5,"adult","high_prob","lp_3"
18,274,1,790.555,6,0,2,5,"adult","absent","lp_2"
18,275,1,564.599991,2,0,2,5,"adult","absent","high_prob"
18,276,1,720.97373,5,0,2,5,"adult","absent","lp_3"
18,277,1,1046.891212,2,0,2,5,"adult","absent","high_prob"
18,278,1,709.601641,4,2,2,5,"adult","high_prob","lp_2"
18,279,0,660.488844,2,1,2,5,"adult","lp_1","high_prob"
18,280,1,818.040609,6,0,2,5,"adult","absent","lp_2"
18,281,1,603.808641,1,2,2,5,"adult","high_prob","lp_1"
18,282,1,634.989977,5,0,2,5,"adult","absent","lp_3"
18,283,1,814.41617,1,0,2,5,"adult","absent","lp_1"
18,284,1,855.095625,4,0,2,5,"adult","absent","lp_2"
18,285,1,932.933807,5,0,2,5,"adult","absent","lp_3"
18,286,1,1332.96442,2,3,2,5,"adult","lp_1","high_prob"
18,287,0,596.999884,1,2,2,5,"adult","high_prob","lp_1"
18,288,1,679.648161,2,0,2,5,"adult","absent","high_prob"
18,289,1,1299.441338,6,2,2,5,"adult","high_prob","lp_2"
18,290,1,642.294407,3,0,2,5,"adult","absent","lp_1"
18,291,1,791.306973,3,4,2,5,"adult","lp_2","lp_1"
18,292,1,1094.53392,2,0,2,5,"adult","absent","high_prob"
18,293,1,693.638086,5,2,2,5,"adult","high_prob","lp_3"
18,294,1,1417.093039,4,0,2,5,"adult","absent","lp_2"
18,295,1,973.104,6,2,2,5,"adult","high_prob","lp_2"
18,296,1,939.286947,1,2,2,5,"adult","high_prob","lp_1"
18,297,1,754.158497,4,0,2,5,"adult","absent","lp_2"
18,298,1,839.723349,1,2,2,5,"adult","high_prob","lp_1"
18,299,1,593.615294,2,5,2,5,"adult","lp_3","high_prob"
18,300,1,711.73811,6,2,2,5,"adult","high_prob","lp_2"
18,301,1,600.548744,1,0,2,6,"adult","absent","lp_1"
18,302,1,818.255901,3,0,2,6,"adult","absent","lp_1"
18,303,1,698.95649,1,5,2,6,"adult","lp_3","lp_1"
18,304,1,646.208048,6,0,2,6,"adult","absent","lp_2"
18,305,1,595.30592,2,0,2,6,"adult","absent","high_prob"
18,306,1,712.987185,4,0,2,6,"adult","absent","lp_2"
18,307,1,598.999262,5,0,2,6,"adult","absent","lp_3"
18,308,1,611.529589,2,1,2,6,"adult","lp_1","high_prob"
18,309,1,481.99296,1,0,2,6,"adult","absent","lp_1"
18,310,1,958.114624,1,0,2,6,"adult","absent","lp_1"
18,311,1,899.275541,5,6,2,6,"adult","lp_2","lp_3"
18,312,1,666.725159,3,0,2,6,"adult","absent","lp_1"
18,313,1,562.795162,3,2,2,6,"adult","high_prob","lp_1"
18,314,1,593.386889,1,2,2,6,"adult","high_prob","lp_1"
18,315,0,672.457218,6,0,2,6,"adult","absent","lp_2"
18,316,1,732.740402,3,0,2,6,"adult","absent","lp_1"
18,317,1,1136.612892,3,4,2,6,"adult","lp_2","lp_1"
18,318,1,485.569,3,2,2,6,"adult","high_prob","lp_1"
18,319,1,639.483929,1,0,2,6,"adult","absent","lp_1"
18,320,1,528.598785,2,5,2,6,"adult","lp_3","high_prob"
18,321,1,677.836657,4,0,2,6,"adult","absent","lp_2"
18,322,1,516.601801,6,0,2,6,"adult","absent","lp_2"
18,323,1,617.276907,3,0,2,6,"adult","absent","lp_1"
18,324,1,592.827559,5,0,2,6,"adult","absent","lp_3"
18,325,1,972.609758,3,2,2,6,"adult","high_prob","lp_1"
18,326,1,546.397686,2,4,2,6,"adult","lp_2","high_prob"
18,327,1,1846.875668,1,2,2,6,"adult","high_prob","lp_1"
18,328,1,609.116316,4,0,2,6,"adult","absent","lp_2"
18,329,1,995.426655,6,0,2,6,"adult","absent","lp_2"
18,330,1,568.094492,2,0,2,6,"adult","absent","high_prob"
18,331,0,654.068708,2,3,2,6,"adult","lp_1","high_prob"
18,332,1,1312.084675,2,0,2,6,"adult","absent","high_prob"
18,333,1,632.770538,4,1,2,6,"adult","lp_1","lp_2"
18,334,1,842.085838,2,0,2,6,"adult","absent","high_prob"
18,335,1,821.604967,4,2,2,6,"adult","high_prob","lp_2"
18,336,1,1153.284788,1,2,2,6,"adult","high_prob","lp_1"
18,337,1,716.217041,5,0,2,6,"adult","absent","lp_3"
18,338,1,594.85817,3,2,2,6,"adult","high_prob","lp_1"
18,339,1,698.830605,5,2,2,6,"adult","high_prob","lp_3"
18,340,1,976.477146,3,0,2,6,"adult","absent","lp_1"
18,341,1,695.642948,4,0,2,6,"adult","absent","lp_2"
18,342,1,577.811956,1,2,2,6,"adult","high_prob","lp_1"
18,343,1,563.525677,6,2,2,6,"adult","high_prob","lp_2"
18,344,1,899.719715,4,2,2,6,"adult","high_prob","lp_2"
18,345,1,692.276001,5,2,2,6,"adult","high_prob","lp_3"
18,346,1,659.867048,2,6,2,6,"adult","lp_2","high_prob"
18,347,1,607.615948,5,2,2,6,"adult","high_prob","lp_3"
18,348,1,818.331957,5,2,2,6,"adult","high_prob","lp_3"
18,349,1,728.9958,4,2,2,6,"adult","high_prob","lp_2"
18,350,1,620.322227,2,0,2,6,"adult","absent","high_prob"
18,351,1,818.892956,5,0,2,6,"adult","absent","lp_3"
18,352,1,1330.123186,6,0,2,6,"adult","absent","lp_2"
18,353,0,1610.440016,6,2,2,6,"adult","high_prob","lp_2"
18,354,1,737.533808,4,0,2,6,"adult","absent","lp_2"
18,355,1,1170.721054,6,2,2,6,"adult","high_prob","lp_2"
18,356,1,1072.004795,6,2,2,6,"adult","high_prob","lp_2"
18,357,1,662.990808,6,3,2,6,"adult","lp_1","lp_2"
18,358,1,804.002047,1,0,2,6,"adult","absent","lp_1"
18,359,1,791.594744,5,0,2,6,"adult","absent","lp_3"
18,360,1,969.404936,4,2,2,6,"adult","high_prob","lp_2"
19,1,1,1270.064354,3,5,5,1,"adult","high_prob","lp_2"
19,2,1,1120.78476,6,0,5,1,"adult","absent","lp_1"
19,3,1,806.516171,1,5,5,1,"adult","high_prob","lp_2"
19,4,1,817.157507,5,4,5,1,"adult","lp_1","high_prob"
19,5,1,657.824755,4,5,5,1,"adult","high_prob","lp_1"
19,6,1,739.664078,3,5,5,1,"adult","high_prob","lp_2"
19,7,1,918.6759,1,5,5,1,"adult","high_prob","lp_2"
19,8,1,834.321976,1,0,5,1,"adult","absent","lp_2"
19,9,1,701.509953,2,0,5,1,"adult","absent","lp_3"
19,10,1,843.375444,2,5,5,1,"adult","high_prob","lp_3"
19,11,1,962.38184,3,2,5,1,"adult","lp_3","lp_2"
19,12,1,1143.460274,5,6,5,1,"adult","lp_1","high_prob"
19,13,1,790.691853,1,0,5,1,"adult","absent","lp_2"
19,14,1,769.237041,3,5,5,1,"adult","high_prob","lp_2"
19,15,1,819.730759,3,0,5,1,"adult","absent","lp_2"
19,16,1,775.306702,2,5,5,1,"adult","high_prob","lp_3"
19,17,1,749.037981,6,0,5,1,"adult","absent","lp_1"
19,18,1,721.254587,1,5,5,1,"adult","high_prob","lp_2"
19,19,1,926.831245,6,0,5,1,"adult","absent","lp_1"
19,20,1,805.840015,2,5,5,1,"adult","high_prob","lp_3"
19,21,1,792.932987,5,0,5,1,"adult","absent","high_prob"
19,22,1,735.023975,5,2,5,1,"adult","lp_3","high_prob"
19,23,1,644.021034,1,0,5,1,"adult","absent","lp_2"
19,24,1,816.127062,1,5,5,1,"adult","high_prob","lp_2"
19,25,1,742.077351,3,0,5,1,"adult","absent","lp_2"
19,26,1,770.474195,2,0,5,1,"adult","absent","lp_3"
19,27,1,986.198187,6,1,5,1,"adult","lp_2","lp_1"
19,28,1,1070.105553,6,5,5,1,"adult","high_prob","lp_1"
19,29,1,779.650927,1,0,5,1,"adult","absent","lp_2"
19,30,1,1120.472193,4,0,5,1,"adult","absent","lp_1"
19,31,1,939.456701,5,0,5,1,"adult","absent","high_prob"
19,32,1,713.211298,3,5,5,1,"adult","high_prob","lp_2"
19,33,1,698.774099,2,5,5,1,"adult","high_prob","lp_3"
19,34,1,1371.621132,4,0,5,1,"adult","absent","lp_1"
19,35,1,697.045803,2,6,5,1,"adult","lp_1","lp_3"
19,36,1,809.318542,3,0,5,1,"adult","absent","lp_2"
19,37,1,571.671486,4,5,5,1,"adult","high_prob","lp_1"
19,38,1,634.917498,6,0,5,1,"adult","absent","lp_1"
19,39,1,723.67692,4,0,5,1,"adult","absent","lp_1"
19,40,1,894.209146,5,1,5,1,"adult","lp_2","high_prob"
19,41,0,916.481972,3,0,5,1,"adult","absent","lp_2"
19,42,1,1092.187166,4,0,5,1,"adult","absent","lp_1"
19,43,1,714.283228,2,0,5,1,"adult","absent","lp_3"
19,44,1,728.574038,1,5,5,1,"adult","high_prob","lp_2"
19,45,1,740.168571,5,0,5,1,"adult","absent","high_prob"
19,46,1,757.135391,4,5,5,1,"adult","high_prob","lp_1"
19,47,1,999.421835,6,5,5,1,"adult","high_prob","lp_1"
19,48,1,846.631289,4,5,5,1,"adult","high_prob","lp_1"
19,49,1,688.696861,6,0,5,1,"adult","absent","lp_1"
19,50,1,837.672949,1,0,5,1,"adult","absent","lp_2"
19,51,1,1126.752615,6,5,5,1,"adult","high_prob","lp_1"
19,52,1,1080.711842,5,0,5,1,"adult","absent","high_prob"
19,53,0,949.670076,2,0,5,1,"adult","absent","lp_3"
19,54,1,1583.131552,5,3,5,1,"adult","lp_2","high_prob"
19,55,1,857.176065,3,0,5,1,"adult","absent","lp_2"
19,56,1,1229.560137,6,5,5,1,"adult","high_prob","lp_1"
19,57,1,1078.776121,4,0,5,1,"adult","absent","lp_1"
19,58,1,1012.707949,2,0,5,1,"adult","absent","lp_3"
19,59,1,1138.925314,4,3,5,1,"adult","lp_2","lp_1"
19,60,1,1578.200102,5,0,5,1,"adult","absent","high_prob"
19,61,1,927.854538,2,5,5,2,"adult","high_prob","lp_3"
19,62,1,998.821497,3,5,5,2,"adult","high_prob","lp_2"
19,63,1,1071.0783,6,0,5,2,"adult","absent","lp_1"
19,64,1,733.962536,3,5,5,2,"adult","high_prob","lp_2"
19,65,1,695.542097,2,6,5,2,"adult","lp_1","lp_3"
19,66,1,632.784605,4,0,5,2,"adult","absent","lp_1"
19,67,1,741.290808,3,0,5,2,"adult","absent","lp_2"
19,68,1,1799.649954,4,3,5,2,"adult","lp_2","lp_1"
19,69,1,1166.982651,4,0,5,2,"adult","absent","lp_1"
19,70,1,742.306948,4,5,5,2,"adult","high_prob","lp_1"
19,71,1,745.826721,2,0,5,2,"adult","absent","lp_3"
19,72,1,758.190632,6,0,5,2,"adult","absent","lp_1"
19,73,1,689.931393,6,5,5,2,"adult","high_prob","lp_1"
19,74,1,1052.547693,1,0,5,2,"adult","absent","lp_2"
19,75,1,784.455299,1,5,5,2,"adult","high_prob","lp_2"
19,76,1,1199.163437,1,0,5,2,"adult","absent","lp_2"
19,77,1,2567.834616,3,0,5,2,"adult","absent","lp_2"
19,78,1,638.520479,1,5,5,2,"adult","high_prob","lp_2"
19,79,1,1587.9457,2,5,5,2,"adult","high_prob","lp_3"
19,80,0,1000.448942,1,0,5,2,"adult","absent","lp_2"
19,81,1,1763.722181,4,0,5,2,"adult","absent","lp_1"
19,82,1,1094.594717,4,0,5,2,"adult","absent","lp_1"
19,83,1,968.828678,2,5,5,2,"adult","high_prob","lp_3"
19,84,1,734.100819,3,0,5,2,"adult","absent","lp_2"
19,85,1,993.314266,5,4,5,2,"adult","lp_1","high_prob"
19,86,1,855.624676,2,0,5,2,"adult","absent","lp_3"
19,87,1,1003.039122,5,1,5,2,"adult","lp_2","high_prob"
19,88,1,648.454905,2,0,5,2,"adult","absent","lp_3"
19,89,1,996.230841,6,5,5,2,"adult","high_prob","lp_1"
19,90,1,784.899235,5,0,5,2,"adult","absent","high_prob"
19,91,1,743.710279,3,2,5,2,"adult","lp_3","lp_2"
19,92,1,618.019819,6,0,5,2,"adult","absent","lp_1"
19,93,1,736.404896,2,5,5,2,"adult","high_prob","lp_3"
19,94,1,889.953375,6,0,5,2,"adult","absent","lp_1"
19,95,1,739.524841,5,6,5,2,"adult","lp_1","high_prob"
19,96,0,756.49929,3,5,5,2,"adult","high_prob","lp_2"
19,97,1,618.285656,1,5,5,2,"adult","high_prob","lp_2"
19,98,1,571.92564,1,5,5,2,"adult","high_prob","lp_2"
19,99,1,637.394905,4,5,5,2,"adult","high_prob","lp_1"
19,100,1,655.98464,4,5,5,2,"adult","high_prob","lp_1"
19,101,1,721.607208,3,0,5,2,"adult","absent","lp_2"
19,102,1,872.171879,6,5,5,2,"adult","high_prob","lp_1"
19,103,1,612.360001,3,0,5,2,"adult","absent","lp_2"
19,104,1,867.987871,5,0,5,2,"adult","absent","high_prob"
19,105,1,658.449173,5,0,5,2,"adult","absent","high_prob"
19,106,1,633.88133,5,0,5,2,"adult","absent","high_prob"
19,107,1,1323.529005,4,0,5,2,"adult","absent","lp_1"
19,108,1,1044.463158,6,5,5,2,"adult","high_prob","lp_1"
19,109,1,1161.844969,2,0,5,2,"adult","absent","lp_3"
19,110,1,673.953772,5,0,5,2,"adult","absent","high_prob"
19,111,1,1328.756809,1,5,5,2,"adult","high_prob","lp_2"
19,112,1,982.834816,6,0,5,2,"adult","absent","lp_1"
19,113,0,616.631508,5,3,5,2,"adult","lp_2","high_prob"
19,114,1,1352.711439,1,0,5,2,"adult","absent","lp_2"
19,115,1,1260.412693,4,5,5,2,"adult","high_prob","lp_1"
19,116,0,682.53994,5,2,5,2,"adult","lp_3","high_prob"
19,117,1,2037.644863,2,0,5,2,"adult","absent","lp_3"
19,118,1,1567.906857,6,1,5,2,"adult","lp_2","lp_1"
19,119,1,636.128664,1,0,5,2,"adult","absent","lp_2"
19,120,1,810.16922,3,5,5,2,"adult","high_prob","lp_2"
19,121,1,774.191856,2,0,5,3,"adult","absent","lp_3"
19,122,1,954.86784,3,5,5,3,"adult","high_prob","lp_2"
19,123,1,751.897573,4,5,5,3,"adult","high_prob","lp_1"
19,124,1,734.008074,4,5,5,3,"adult","high_prob","lp_1"
19,125,1,602.885008,4,0,5,3,"adult","absent","lp_1"
19,126,1,633.187532,5,0,5,3,"adult","absent","high_prob"
19,127,1,717.069149,1,5,5,3,"adult","high_prob","lp_2"
19,128,1,712.404013,2,0,5,3,"adult","absent","lp_3"
19,129,1,834.589005,6,5,5,3,"adult","high_prob","lp_1"
19,130,1,713.568687,3,5,5,3,"adult","high_prob","lp_2"
19,131,1,789.228916,6,1,5,3,"adult","lp_2","lp_1"
19,132,1,681.217909,5,3,5,3,"adult","lp_2","high_prob"
19,133,1,569.882154,2,0,5,3,"adult","absent","lp_3"
19,134,1,615.232706,2,5,5,3,"adult","high_prob","lp_3"
19,135,1,650.749922,4,5,5,3,"adult","high_prob","lp_1"
19,136,1,592.80014,1,5,5,3,"adult","high_prob","lp_2"
19,137,1,836.728096,3,0,5,3,"adult","absent","lp_2"
19,138,1,725.864887,5,0,5,3,"adult","absent","high_prob"
19,139,1,694.545507,5,0,5,3,"adult","absent","high_prob"
19,140,1,1542.673111,5,6,5,3,"adult","lp_1","high_prob"
19,141,1,1021.760464,1,5,5,3,"adult","high_prob","lp_2"
19,142,1,770.612717,5,0,5,3,"adult","absent","high_prob"
19,143,1,736.032009,1,5,5,3,"adult","high_prob","lp_2"
19,144,1,774.817705,5,4,5,3,"adult","lp_1","high_prob"
19,145,1,1164.160728,1,0,5,3,"adult","absent","lp_2"
19,146,1,876.600981,5,1,5,3,"adult","lp_2","high_prob"
19,147,1,825.383902,3,2,5,3,"adult","lp_3","lp_2"
19,148,1,555.630207,6,0,5,3,"adult","absent","lp_1"
19,149,1,583.044052,4,0,5,3,"adult","absent","lp_1"
19,150,1,544.613361,4,0,5,3,"adult","absent","lp_1"
19,151,1,606.583834,4,3,5,3,"adult","lp_2","lp_1"
19,152,1,798.749924,1,0,5,3,"adult","absent","lp_2"
19,153,1,840.814114,4,5,5,3,"adult","high_prob","lp_1"
19,154,1,684.851885,6,5,5,3,"adult","high_prob","lp_1"
19,155,1,478.365183,2,5,5,3,"adult","high_prob","lp_3"
19,156,0,797.12081,3,0,5,3,"adult","absent","lp_2"
19,157,1,704.777956,2,6,5,3,"adult","lp_1","lp_3"
19,158,1,801.968575,2,0,5,3,"adult","absent","lp_3"
19,159,1,639.450073,2,5,5,3,"adult","high_prob","lp_3"
19,160,1,591.510057,3,5,5,3,"adult","high_prob","lp_2"
19,161,1,605.254889,1,5,5,3,"adult","high_prob","lp_2"
19,162,1,661.228657,1,0,5,3,"adult","absent","lp_2"
19,163,1,683.494091,4,0,5,3,"adult","absent","lp_1"
19,164,1,1778.415918,6,0,5,3,"adult","absent","lp_1"
19,165,1,622.573376,1,0,5,3,"adult","absent","lp_2"
19,166,1,597.689629,3,0,5,3,"adult","absent","lp_2"
19,167,1,549.978256,4,0,5,3,"adult","absent","lp_1"
19,168,0,702.340126,6,5,5,3,"adult","high_prob","lp_1"
19,169,1,700.417995,2,0,5,3,"adult","absent","lp_3"
19,170,1,802.873611,6,0,5,3,"adult","absent","lp_1"
19,171,1,583.563805,6,0,5,3,"adult","absent","lp_1"
19,172,1,506.962776,1,0,5,3,"adult","absent","lp_2"
19,173,1,749.196768,6,0,5,3,"adult","absent","lp_1"
19,174,1,590.960741,3,0,5,3,"adult","absent","lp_2"
19,175,1,825.165987,2,5,5,3,"adult","high_prob","lp_3"
19,176,1,701.262951,5,0,5,3,"adult","absent","high_prob"
19,177,1,591.063976,3,0,5,3,"adult","absent","lp_2"
19,178,1,685.083389,3,5,5,3,"adult","high_prob","lp_2"
19,179,1,637.403488,5,2,5,3,"adult","lp_3","high_prob"
19,180,1,481.014252,6,5,5,3,"adult","high_prob","lp_1"
19,181,1,865.247488,3,0,5,4,"adult","absent","lp_2"
19,182,1,987.894297,2,0,5,4,"adult","absent","lp_3"
19,183,1,584.397554,4,0,5,4,"adult","absent","lp_1"
19,184,0,798.674822,6,5,5,4,"adult","high_prob","lp_1"
19,185,1,931.075811,6,0,5,4,"adult","absent","lp_1"
19,186,1,619.835615,3,0,5,4,"adult","absent","lp_2"
19,187,1,795.88747,1,5,5,4,"adult","high_prob","lp_2"
19,188,1,853.148937,5,0,5,4,"adult","absent","high_prob"
19,189,1,745.113611,2,0,5,4,"adult","absent","lp_3"
19,190,1,539.076328,4,0,5,4,"adult","absent","lp_1"
19,191,1,1452.137947,2,0,5,4,"adult","absent","lp_3"
19,192,1,1104.740381,4,5,5,4,"adult","high_prob","lp_1"
19,193,1,1097.144127,6,0,5,4,"adult","absent","lp_1"
19,194,1,804.92568,4,5,5,4,"adult","high_prob","lp_1"
19,195,1,892.263889,6,0,5,4,"adult","absent","lp_1"
19,196,1,679.053545,6,1,5,4,"adult","lp_2","lp_1"
19,197,1,562.785149,6,5,5,4,"adult","high_prob","lp_1"
19,198,1,719.902754,1,0,5,4,"adult","absent","lp_2"
19,199,1,814.137459,5,6,5,4,"adult","lp_1","high_prob"
19,200,1,701.122046,3,5,5,4,"adult","high_prob","lp_2"
19,201,1,1577.60191,5,0,5,4,"adult","absent","high_prob"
19,202,1,653.112888,4,3,5,4,"adult","lp_2","lp_1"
19,203,1,782.438993,2,5,5,4,"adult","high_prob","lp_3"
19,204,1,904.249907,4,5,5,4,"adult","high_prob","lp_1"
19,205,1,679.687738,3,5,5,4,"adult","high_prob","lp_2"
19,206,1,855.376005,3,0,5,4,"adult","absent","lp_2"
19,207,1,655.997753,2,6,5,4,"adult","lp_1","lp_3"
19,208,1,598.124743,5,0,5,4,"adult","absent","high_prob"
19,209,1,960.319757,1,5,5,4,"adult","high_prob","lp_2"
19,210,1,585.517168,1,5,5,4,"adult","high_prob","lp_2"
19,211,0,724.395037,6,5,5,4,"adult","high_prob","lp_1"
19,212,1,750.097036,1,0,5,4,"adult","absent","lp_2"
19,213,1,662.436247,5,0,5,4,"adult","absent","high_prob"
19,214,1,477.83947,3,5,5,4,"adult","high_prob","lp_2"
19,215,1,771.807909,6,0,5,4,"adult","absent","lp_1"
19,216,1,592.601299,2,5,5,4,"adult","high_prob","lp_3"
19,217,1,554.712534,3,0,5,4,"adult","absent","lp_2"
19,218,1,683.980227,1,0,5,4,"adult","absent","lp_2"
19,219,1,640.769005,4,0,5,4,"adult","absent","lp_1"
19,220,1,529.347181,4,0,5,4,"adult","absent","lp_1"
19,221,1,733.352661,5,2,5,4,"adult","lp_3","high_prob"
19,222,1,872.792244,1,0,5,4,"adult","absent","lp_2"
19,223,1,653.068304,2,5,5,4,"adult","high_prob","lp_3"
19,224,1,603.5676,6,0,5,4,"adult","absent","lp_1"
19,225,1,625.71454,1,0,5,4,"adult","absent","lp_2"
19,226,1,931.645632,2,0,5,4,"adult","absent","lp_3"
19,227,1,760.763884,5,0,5,4,"adult","absent","high_prob"
19,228,1,846.277714,1,5,5,4,"adult","high_prob","lp_2"
19,229,1,683.410406,6,5,5,4,"adult","high_prob","lp_1"
19,230,1,932.68013,5,3,5,4,"adult","lp_2","high_prob"
19,231,1,718.950033,4,0,5,4,"adult","absent","lp_1"
19,232,1,707.332134,3,2,5,4,"adult","lp_3","lp_2"
19,233,1,1010.014057,3,5,5,4,"adult","high_prob","lp_2"
19,234,1,615.526915,5,4,5,4,"adult","lp_1","high_prob"
19,235,1,695.952892,5,1,5,4,"adult","lp_2","high_prob"
19,236,1,593.09411,2,5,5,4,"adult","high_prob","lp_3"
19,237,1,837.188244,4,5,5,4,"adult","high_prob","lp_1"
19,238,1,846.396446,2,0,5,4,"adult","absent","lp_3"
19,239,1,588.421822,3,0,5,4,"adult","absent","lp_2"
19,240,1,605.527878,1,5,5,4,"adult","high_prob","lp_2"
19,241,1,724.502325,6,0,5,5,"adult","absent","lp_1"
19,242,1,602.475166,2,0,5,5,"adult","absent","lp_3"
19,243,1,574.718952,3,0,5,5,"adult","absent","lp_2"
19,244,1,813.679934,6,5,5,5,"adult","high_prob","lp_1"
19,245,1,690.567255,5,1,5,5,"adult","lp_2","high_prob"
19,246,0,587.613106,1,5,5,5,"adult","high_prob","lp_2"
19,247,1,826.6747,4,0,5,5,"adult","absent","lp_1"
19,248,1,735.909939,3,0,5,5,"adult","absent","lp_2"
19,249,1,985.066652,6,0,5,5,"adult","absent","lp_1"
19,250,1,678.688765,1,0,5,5,"adult","absent","lp_2"
19,251,1,712.659359,3,5,5,5,"adult","high_prob","lp_2"
19,252,1,523.199081,1,0,5,5,"adult","absent","lp_2"
19,253,1,543.670654,1,0,5,5,"adult","absent","lp_2"
19,254,1,1106.315136,6,0,5,5,"adult","absent","lp_1"
19,255,1,783.262253,1,5,5,5,"adult","high_prob","lp_2"
19,256,1,696.842194,2,6,5,5,"adult","lp_1","lp_3"
19,257,1,789.218664,5,0,5,5,"adult","absent","high_prob"
19,258,1,753.19767,3,2,5,5,"adult","lp_3","lp_2"
19,259,1,1075.548887,5,4,5,5,"adult","lp_1","high_prob"
19,260,1,859.950781,1,5,5,5,"adult","high_prob","lp_2"
19,261,1,516.860247,5,3,5,5,"adult","lp_2","high_prob"
19,262,1,712.296009,4,3,5,5,"adult","lp_2","lp_1"
19,263,1,783.034563,2,5,5,5,"adult","high_prob","lp_3"
19,264,1,677.073956,6,5,5,5,"adult","high_prob","lp_1"
19,265,1,855.873108,4,0,5,5,"adult","absent","lp_1"
19,266,1,678.117752,2,0,5,5,"adult","absent","lp_3"
19,267,1,772.152901,6,1,5,5,"adult","lp_2","lp_1"
19,268,1,552.559137,1,0,5,5,"adult","absent","lp_2"
19,269,1,654.827833,4,5,5,5,"adult","high_prob","lp_1"
19,270,1,585.010052,6,5,5,5,"adult","high_prob","lp_1"
19,271,1,848.965883,3,0,5,5,"adult","absent","lp_2"
19,272,1,636.13534,2,5,5,5,"adult","high_prob","lp_3"
19,273,1,1976.3062,5,0,5,5,"adult","absent","high_prob"
19,274,1,962.424755,3,0,5,5,"adult","absent","lp_2"
19,275,1,819.805861,2,5,5,5,"adult","high_prob","lp_3"
19,276,1,503.489017,2,0,5,5,"adult","absent","lp_3"
19,277,1,759.093046,5,0,5,5,"adult","absent","high_prob"
19,278,1,710.960865,1,0,5,5,"adult","absent","lp_2"
19,279,1,676.684856,6,0,5,5,"adult","absent","lp_1"
19,280,1,747.209072,4,0,5,5,"adult","absent","lp_1"
19,281,1,634.371758,3,5,5,5,"adult","high_prob","lp_2"
19,282,1,623.023987,4,5,5,5,"adult","high_prob","lp_1"
19,283,1,611.948967,1,5,5,5,"adult","high_prob","lp_2"
19,284,1,628.87764,4,5,5,5,"adult","high_prob","lp_1"
19,285,1,652.84586,2,5,5,5,"adult","high_prob","lp_3"
19,286,1,560.126781,6,0,5,5,"adult","absent","lp_1"
19,287,1,1080.974102,5,0,5,5,"adult","absent","high_prob"
19,288,1,489.569902,2,0,5,5,"adult","absent","lp_3"
19,289,0,568.508863,4,0,5,5,"adult","absent","lp_1"
19,290,1,538.983822,6,5,5,5,"adult","high_prob","lp_1"
19,291,1,1661.913633,1,5,5,5,"adult","high_prob","lp_2"
19,292,1,649.106979,3,5,5,5,"adult","high_prob","lp_2"
19,293,1,606.269836,3,5,5,5,"adult","high_prob","lp_2"
19,294,1,536.676884,3,0,5,5,"adult","absent","lp_2"
19,295,1,570.380688,5,0,5,5,"adult","absent","high_prob"
19,296,1,445.940495,2,0,5,5,"adult","absent","lp_3"
19,297,1,522.682905,5,6,5,5,"adult","lp_1","high_prob"
19,298,1,583.286047,4,0,5,5,"adult","absent","lp_1"
19,299,1,1257.694721,4,5,5,5,"adult","high_prob","lp_1"
19,300,1,608.317137,5,2,5,5,"adult","lp_3","high_prob"
19,301,1,997.246265,3,0,5,6,"adult","absent","lp_2"
19,302,1,1121.718884,1,0,5,6,"adult","absent","lp_2"
19,303,1,680.754185,3,5,5,6,"adult","high_prob","lp_2"
19,304,1,669.946909,5,2,5,6,"adult","lp_3","high_prob"
19,305,1,895.558596,2,0,5,6,"adult","absent","lp_3"
19,306,1,756.323814,4,5,5,6,"adult","high_prob","lp_1"
19,307,1,794.857502,5,4,5,6,"adult","lp_1","high_prob"
19,308,1,626.969814,2,5,5,6,"adult","high_prob","lp_3"
19,309,1,527.466059,1,5,5,6,"adult","high_prob","lp_2"
19,310,1,636.044025,6,1,5,6,"adult","lp_2","lp_1"
19,311,1,675.017357,1,5,5,6,"adult","high_prob","lp_2"
19,312,1,530.310869,4,0,5,6,"adult","absent","lp_1"
19,313,1,598.98591,2,5,5,6,"adult","high_prob","lp_3"
19,314,1,563.242912,6,5,5,6,"adult","high_prob","lp_1"
19,315,1,541.426659,1,5,5,6,"adult","high_prob","lp_2"
19,316,1,708.482981,2,6,5,6,"adult","lp_1","lp_3"
19,317,1,640.812159,6,0,5,6,"adult","absent","lp_1"
19,318,1,608.161926,3,0,5,6,"adult","absent","lp_2"
19,319,1,955.8599,2,0,5,6,"adult","absent","lp_3"
19,320,0,968.040705,6,0,5,6,"adult","absent","lp_1"
19,321,1,1074.019909,4,0,5,6,"adult","absent","lp_1"
19,322,1,1008.248568,5,3,5,6,"adult","lp_2","high_prob"
19,323,1,645.340919,3,0,5,6,"adult","absent","lp_2"
19,324,1,657.720089,4,5,5,6,"adult","high_prob","lp_1"
19,325,1,693.179131,3,0,5,6,"adult","absent","lp_2"
19,326,1,782.035112,1,5,5,6,"adult","high_prob","lp_2"
19,327,1,540.944099,5,0,5,6,"adult","absent","high_prob"
19,328,1,708.342791,6,0,5,6,"adult","absent","lp_1"
19,329,1,632.327318,4,0,5,6,"adult","absent","lp_1"
19,330,1,714.368343,6,5,5,6,"adult","high_prob","lp_1"
19,331,1,820.030928,1,5,5,6,"adult","high_prob","lp_2"
19,332,1,590.581417,5,0,5,6,"adult","absent","high_prob"
19,333,1,589.747429,2,5,5,6,"adult","high_prob","lp_3"
19,334,1,606.753588,1,0,5,6,"adult","absent","lp_2"
19,335,1,563.858032,1,0,5,6,"adult","absent","lp_2"
19,336,1,644.455671,3,0,5,6,"adult","absent","lp_2"
19,337,1,686.852455,2,0,5,6,"adult","absent","lp_3"
19,338,1,761.065245,5,0,5,6,"adult","absent","high_prob"
19,339,1,578.549862,1,0,5,6,"adult","absent","lp_2"
19,340,1,546.735764,2,0,5,6,"adult","absent","lp_3"
19,341,1,699.242353,6,0,5,6,"adult","absent","lp_1"
19,342,1,1334.010124,5,6,5,6,"adult","lp_1","high_prob"
19,343,1,630.694151,5,0,5,6,"adult","absent","high_prob"
19,344,1,1164.865017,6,5,5,6,"adult","high_prob","lp_1"
19,345,1,680.967808,4,0,5,6,"adult","absent","lp_1"
19,346,1,564.650297,6,0,5,6,"adult","absent","lp_1"
19,347,1,965.21616,1,0,5,6,"adult","absent","lp_2"
19,348,1,735.764027,4,5,5,6,"adult","high_prob","lp_1"
19,349,1,869.743824,4,3,5,6,"adult","lp_2","lp_1"
19,350,1,745.48173,6,5,5,6,"adult","high_prob","lp_1"
19,351,1,958.063841,3,5,5,6,"adult","high_prob","lp_2"
19,352,1,615.245819,3,5,5,6,"adult","high_prob","lp_2"
19,353,1,597.761154,3,5,5,6,"adult","high_prob","lp_2"
19,354,1,850.193262,4,0,5,6,"adult","absent","lp_1"
19,355,1,645.024061,5,1,5,6,"adult","lp_2","high_prob"
19,356,1,447.117567,2,0,5,6,"adult","absent","lp_3"
19,357,1,499.186039,5,0,5,6,"adult","absent","high_prob"
19,358,1,638.423681,3,2,5,6,"adult","lp_3","lp_2"
19,359,1,690.454006,4,5,5,6,"adult","high_prob","lp_1"
19,360,1,519.212008,2,5,5,6,"adult","high_prob","lp_3"
20,1,1,1059.794426,3,0,4,1,"adult","absent","lp_1"
20,2,1,910.512209,4,1,4,1,"adult","lp_3","high_prob"
20,3,1,1208.704948,6,0,4,1,"adult","absent","lp_2"
20,4,1,828.473568,2,0,4,1,"adult","absent","lp_2"
20,5,1,747.114897,5,4,4,1,"adult","high_prob","lp_1"
20,6,1,904.541492,3,0,4,1,"adult","absent","lp_1"
20,7,1,746.67716,1,0,4,1,"adult","absent","lp_3"
20,8,1,603.571892,1,0,4,1,"adult","absent","lp_3"
20,9,1,625.793934,4,0,4,1,"adult","absent","high_prob"
20,10,1,916.370392,3,0,4,1,"adult","absent","lp_1"
20,11,1,907.164097,6,0,4,1,"adult","absent","lp_2"
20,12,1,837.435961,6,0,4,1,"adult","absent","lp_2"
20,13,1,651.340723,2,0,4,1,"adult","absent","lp_2"
20,14,1,548.105001,3,4,4,1,"adult","high_prob","lp_1"
20,15,1,1025.33102,3,4,4,1,"adult","high_prob","lp_1"
20,16,1,994.46702,4,0,4,1,"adult","absent","high_prob"
20,17,1,793.090343,5,4,4,1,"adult","high_prob","lp_1"
20,18,1,629.953146,2,0,4,1,"adult","absent","lp_2"
20,19,1,763.846636,3,0,4,1,"adult","absent","lp_1"
20,20,1,590.501547,4,0,4,1,"adult","absent","high_prob"
20,21,1,842.425823,5,4,4,1,"adult","high_prob","lp_1"
20,22,1,976.392508,4,5,4,1,"adult","lp_1","high_prob"
20,23,1,1300.836325,2,4,4,1,"adult","high_prob","lp_2"
20,24,1,1023.247004,6,4,4,1,"adult","high_prob","lp_2"
20,25,1,616.668701,3,0,4,1,"adult","absent","lp_1"
20,26,1,682.115555,3,5,4,1,"adult","lp_1","lp_1"
20,27,1,837.383747,1,4,4,1,"adult","high_prob","lp_3"
20,28,1,794.797659,2,4,4,1,"adult","high_prob","lp_2"
20,29,1,1018.725395,4,3,4,1,"adult","lp_1","high_prob"
20,30,1,672.354698,6,4,4,1,"adult","high_prob","lp_2"
20,31,1,592.676878,1,0,4,1,"adult","absent","lp_3"
20,32,1,821.388721,5,6,4,1,"adult","lp_2","lp_1"
20,33,1,735.676289,1,3,4,1,"adult","lp_1","lp_3"
20,34,1,714.185715,5,0,4,1,"adult","absent","lp_1"
20,35,1,549.424887,2,0,4,1,"adult","absent","lp_2"
20,36,1,1091.799736,6,4,4,1,"adult","high_prob","lp_2"
20,37,1,650.309086,2,0,4,1,"adult","absent","lp_2"
20,38,1,1187.649965,6,4,4,1,"adult","high_prob","lp_2"
20,39,1,564.581871,4,0,4,1,"adult","absent","high_prob"
20,40,1,611.644506,1,0,4,1,"adult","absent","lp_3"
20,41,0,496.823311,5,0,4,1,"adult","absent","lp_1"
20,42,1,913.712978,5,0,4,1,"adult","absent","lp_1"
20,43,1,624.219656,1,4,4,1,"adult","high_prob","lp_3"
20,44,1,589.544058,1,4,4,1,"adult","high_prob","lp_3"
20,45,1,691.629887,5,0,4,1,"adult","absent","lp_1"
20,46,1,870.491743,3,4,4,1,"adult","high_prob","lp_1"
20,47,1,831.136703,2,1,4,1,"adult","lp_3","lp_2"
20,48,0,980.182648,6,0,4,1,"adult","absent","lp_2"
20,49,1,959.208965,4,6,4,1,"adult","lp_2","high_prob"
20,50,1,854.892731,4,2,4,1,"adult","lp_2","high_prob"
20,51,1,922.627926,5,0,4,1,"adult","absent","lp_1"
20,52,1,1428.732872,3,4,4,1,"adult","high_prob","lp_1"
20,53,1,802.623987,1,4,4,1,"adult","high_prob","lp_3"
20,54,1,949.934006,3,4,4,1,"adult","high_prob","lp_1"
20,55,1,1017.334938,2,4,4,1,"adult","high_prob","lp_2"
20,56,1,707.828045,6,2,4,1,"adult","lp_2","lp_2"
20,57,1,858.232975,4,0,4,1,"adult","absent","high_prob"
20,58,1,630.403042,6,0,4,1,"adult","absent","lp_2"
20,59,1,563.747883,1,0,4,1,"adult","absent","lp_3"
20,60,1,1079.543114,2,4,4,1,"adult","high_prob","lp_2"
20,61,1,888.355255,5,0,4,2,"adult","absent","lp_1"
20,62,1,1092.855692,3,4,4,2,"adult","high_prob","lp_1"
20,63,1,586.614847,6,0,4,2,"adult","absent","lp_2"
20,64,1,1764.814138,5,0,4,2,"adult","absent","lp_1"
20,65,1,541.632652,3,4,4,2,"adult","high_prob","lp_1"
20,66,1,863.99579,2,0,4,2,"adult","absent","lp_2"
20,67,1,689.788818,1,4,4,2,"adult","high_prob","lp_3"
20,68,1,525.299788,6,0,4,2,"adult","absent","lp_2"
20,69,0,536.812782,2,1,4,2,"adult","lp_3","lp_2"
20,70,1,645.653248,2,4,4,2,"adult","high_prob","lp_2"
20,71,1,928.145885,5,0,4,2,"adult","absent","lp_1"
20,72,1,633.486986,2,4,4,2,"adult","high_prob","lp_2"
