id,trial_num,acc,rt,target_loc,dist_loc,hp_loc
26,1,1,3.036794424,2,3,2
26,2,0,1.176655293,4,1,2
26,3,1,1.478303432,6,2,2
26,4,1,1.963991642,3,0,2
26,5,1,1.81582427,3,0,2
26,6,1,1.803192854,5,0,2
26,7,1,1.662246943,5,2,2
26,8,1,1.67394042,4,0,2
26,9,0,0.965256453,6,0,2
26,10,1,1.9073174,3,2,2
26,11,1,0.765491247,3,0,2
26,12,1,1.479922295,2,0,2
26,13,1,0.89610219,6,0,2
26,14,0,0.973872185,1,2,2
26,15,1,1.043369055,4,0,2
26,16,1,1.798802376,3,0,2
26,17,1,2.137827396,4,2,2
26,18,1,2.899607182,4,2,2
26,19,1,1.65352273,6,2,2
26,20,1,2.526666403,1,5,2
26,21,1,2.069273472,4,2,2
26,22,1,2.40928793,3,2,2
26,23,1,2.204374552,2,0,2
26,24,1,1.27741909,5,0,2
26,25,1,1.657991171,6,3,2
26,26,1,1.111225367,6,0,2
26,27,1,0.957337856,1,0,2
26,28,1,0.958560228,5,2,2
26,29,1,1.462109566,2,1,2
26,30,1,0.718182087,5,0,2
26,31,1,0.768807173,5,2,2
26,32,1,0.754720926,2,0,2
26,33,1,0.852562428,1,0,2
26,34,1,1.173926353,1,0,2
26,35,0,0.909915686,1,2,2
26,36,1,1.497062206,6,2,2
26,37,1,0.965978622,1,2,2
26,38,1,1.14274168,3,0,2
26,39,1,2.05658412,5,0,2
26,40,1,1.530178547,2,6,2
26,41,1,4.198561668,3,2,2
26,42,1,0.916767597,4,0,2
26,43,1,0.897729635,6,0,2
26,44,1,1.025560379,5,0,2
26,45,0,0.995492935,2,0,2
26,46,1,1.56067729,5,2,2
26,47,1,1.38724637,3,2,2
26,48,1,0.92173934,1,0,2
26,49,1,1.258230448,6,2,2
26,50,1,2.676360607,1,2,2
26,51,1,1.892598867,5,6,2
26,52,1,1.251797438,1,0,2
26,53,1,1.114700556,4,2,2
26,54,1,1.17595458,2,0,2
26,55,1,1.776371956,2,5,2
26,56,1,1.828551054,6,0,2
26,57,1,1.138130426,3,4,2
26,58,1,0.847489595,4,0,2
26,59,1,1.996307135,2,4,2
26,60,1,1.229314566,4,0,2
26,61,1,1.44017458,4,2,2
26,62,1,1.775645494,4,1,2
26,63,1,1.372398138,2,0,2
26,64,0,0.906725645,2,6,2
26,65,1,0.769203424,1,5,2
26,66,1,0.67516017,3,2,2
26,67,1,1.319937229,3,0,2
26,68,1,1.206283331,6,2,2
26,69,1,1.35317874,4,2,2
26,70,1,1.241119862,5,0,2
26,71,1,1.171068668,1,0,2
26,72,0,1.127159595,4,2,2
26,73,1,1.111718893,6,0,2
26,74,1,2.554666996,2,0,2
26,75,1,1.998688459,1,2,2
26,76,1,2.472859383,2,1,2
26,77,1,1.369658709,3,0,2
26,78,1,2.395575523,4,0,2
26,79,0,2.031224728,6,2,2
26,80,1,1.130650997,1,2,2
26,81,1,1.200188637,5,0,2
26,82,1,1.203361511,4,0,2
26,83,1,1.351066113,2,0,2
26,84,1,0.873614311,2,0,2
26,85,1,1.083388329,4,0,2
26,86,1,1.287742376,3,2,2
26,87,1,3.329816341,1,2,2
26,88,1,2.21057868,1,0,2
26,89,1,1.562631607,6,2,2
26,90,1,4.103872776,4,0,2
26,91,1,1.536036491,2,5,2
26,92,1,2.692293167,4,2,2
26,93,1,2.408071518,3,4,2
26,94,0,1.044261932,3,0,2
26,95,1,1.484222651,6,0,2
26,96,1,2.018339872,6,3,2
26,97,1,1.875492334,5,0,2
26,98,1,1.101710081,5,0,2
26,99,1,2.295826912,5,2,2
26,100,1,1.714355469,3,0,2
26,101,1,4.028768778,5,2,2
26,102,1,2.139601231,2,0,2
26,103,1,2.90130043,1,0,2
26,104,1,1.334633589,5,0,2
26,105,1,1.134531021,1,2,2
26,106,1,0.863779068,5,2,2
26,107,1,2.276700974,4,0,2
26,108,1,2.207696199,6,0,2
26,109,1,1.03053236,6,0,2
26,110,1,0.839801073,5,6,2
26,111,1,2.205555677,1,0,2
26,112,1,0.971774578,1,0,2
26,113,1,2.064358234,3,2,2
26,114,0,0.450287104,6,0,2
26,115,1,0.647761583,2,3,2
26,116,1,1.15606308,3,2,2
26,117,1,0.683294296,3,0,2
26,118,1,2.770055771,5,2,2
26,119,0,0.876612663,2,4,2
26,120,1,1.711785555,6,2,2
26,121,1,1.160390615,2,0,2
26,122,1,1.498418331,4,2,2
26,123,1,1.496928692,6,0,2
26,124,1,1.04495883,5,2,2
26,125,1,1.223021269,4,0,2
26,126,1,1.599917412,2,0,2
26,127,1,1.323080301,3,4,2
26,128,1,1.354714632,1,5,2
26,129,1,1.41146946,3,2,2
26,130,1,2.771396399,3,2,2
26,131,1,2.663170815,4,0,2
26,132,1,5.96884799,1,0,2
26,133,1,7.091490269,1,2,2
26,134,1,2.717500448,3,0,2
26,135,1,1.479217529,2,0,2
26,136,1,1.224218607,5,0,2
26,137,1,3.538034201,2,5,2
26,138,1,1.176279545,2,6,2
26,139,0,1.012194395,4,2,2
26,140,1,1.764359713,6,3,2
26,141,1,1.811312199,1,2,2
26,142,1,1.253369093,3,0,2
26,143,1,1.221199751,4,0,2
26,144,1,2.694014311,6,2,2
26,145,1,0.941667557,6,0,2
26,146,1,1.286413908,1,0,2
26,147,1,1.797347069,5,2,2
26,148,1,0.900073528,5,0,2
26,149,1,0.80249238,5,0,2
26,150,1,1.726005077,2,3,2
26,151,1,1.105885506,6,2,2
26,152,1,1.444037676,4,2,2
26,153,1,0.71677351,1,0,2
26,154,1,1.248417377,4,0,2
26,155,1,1.116357327,3,2,2
26,156,1,1.197967291,5,2,2
26,157,1,1.31131649,2,4,2
26,158,1,1.829305172,4,2,2
26,159,1,1.610465288,3,2,2
26,160,1,2.413064718,5,6,2
26,161,1,1.24444437,6,0,2
26,162,1,1.068933249,5,2,2
26,163,1,0.928671598,6,0,2
26,164,1,0.994764328,3,0,2
26,165,1,0.756859064,3,0,2
26,166,1,1.280334711,2,0,2
26,167,1,1.03478694,3,0,2
26,168,1,1.685562134,6,2,2
26,169,1,1.059818506,5,0,2
26,170,1,1.356590271,2,1,2
26,171,1,1.959964991,4,0,2
26,172,1,1.55668354,6,0,2
26,173,1,1.65539217,1,0,2
26,174,1,1.212069511,6,2,2
26,175,1,1.098523617,1,2,2
26,176,1,1.669412851,1,2,2
26,177,1,1.809720516,5,0,2
26,178,1,4.882451296,2,0,2
26,179,1,1.452768564,1,0,2
26,180,1,1.706226349,4,1,2
26,181,0,0,4,2,2
26,182,0,0,4,0,2
26,183,0,0,5,0,2
26,184,0,0,3,2,2
26,185,0,0,5,0,2
26,186,0,0,3,2,2
26,187,0,0,3,0,2
26,188,0,0,3,4,2
26,189,0,0,1,0,2
26,190,0,0,1,0,2
26,191,0,0,2,5,2
26,192,0,0,5,2,2
26,193,0,0,6,2,2
26,194,0,0,1,2,2
26,195,0,0,4,0,2
26,196,0,0,2,0,2
26,197,0,0,2,0,2
26,198,0,0,5,6,2
26,199,0,0,3,0,2
26,200,0,0,5,2,2
26,201,0,0,2,0,2
26,202,0,0,1,2,2
26,203,0,0,3,0,2
26,204,0,0,4,0,2
26,205,0,0,1,0,2
26,206,0,0,1,0,2
26,207,0,0,6,0,2
26,208,0,0,6,0,2
26,209,0,0,6,3,2
26,210,0,0,5,2,2
26,211,0,0,3,0,2
26,212,0,0,6,2,2
26,213,0,0,2,6,2
26,214,0,0,6,0,2
26,215,0,0,2,4,2
26,216,0,0,3,0,2
26,217,0,0,2,0,2
26,218,0,0,6,2,2
26,219,0,0,4,2,2
26,220,0,0,4,0,2
26,221,0,0,6,2,2
26,222,0,0,4,2,2
26,223,0,0,4,0,2
26,224,0,0,2,1,2
26,225,0,0,5,0,2
26,226,0,0,4,2,2
26,227,0,0,4,1,2
26,228,0,0,1,0,2
26,229,0,0,2,0,2
26,230,0,0,3,2,2
26,231,0,0,6,0,2
26,232,0,0,1,2,2
26,233,0,0,1,2,2
26,234,0,0,5,2,2
26,235,0,0,2,3,2
26,236,0,0,6,0,2
26,237,0,0,5,0,2
26,238,0,0,5,0,2
26,239,0,0,3,2,2
26,240,0,0,1,5,2
26,241,0,0,2,1,2
26,242,0,0,3,2,2
26,243,0,0,4,0,2
26,244,0,0,3,0,2
26,245,0,0,1,0,2
26,246,0,0,2,4,2
26,247,0,0,3,4,2
26,248,0,0,2,6,2
26,249,0,0,1,2,2
26,250,0,0,6,2,2
26,251,0,0,5,0,2
26,252,0,0,4,2,2
26,253,0,0,6,2,2
26,254,0,0,3,2,2
26,255,0,0,1,0,2
26,256,0,0,3,2,2
26,257,0,0,6,0,2
26,258,0,0,3,2,2
26,259,0,0,5,2,2
26,260,0,0,5,0,2
26,261,0,0,6,0,2
26,262,0,0,4,0,2
26,263,0,0,4,0,2
26,264,0,0,5,0,2
26,265,0,0,2,0,2
26,266,0,0,3,0,2
26,267,0,0,2,0,2
26,268,0,0,4,2,2
26,269,0,0,1,2,2
26,270,0,0,2,3,2
26,271,0,0,2,0,2
26,272,0,0,2,5,2
26,273,0,0,6,0,2
26,274,0,0,3,0,2
26,275,0,0,2,0,2
26,276,0,0,4,0,2
26,277,0,0,2,0,2
26,278,0,0,5,2,2
26,279,0,0,4,2,2
26,280,0,0,5,2,2
26,281,0,0,5,2,2
26,282,0,0,5,6,2
26,283,0,0,6,0,2
26,284,0,0,1,2,2
26,285,0,0,6,2,2
26,286,0,0,1,0,2
26,287,0,0,1,2,2
26,288,0,0,1,0,2
26,289,0,0,6,3,2
26,290,0,0,1,0,2
26,291,0,0,6,2,2
26,292,0,0,5,0,2
26,293,0,0,1,5,2
26,294,0,0,4,0,2
26,295,0,0,4,1,2
26,296,0,0,3,0,2
26,297,0,0,6,0,2
26,298,0,0,4,2,2
26,299,0,0,3,0,2
26,300,0,0,5,0,2
26,301,0,0,1,2,2
26,302,0,0,4,1,2
26,303,0,0,5,2,2
26,304,0,0,4,0,2
26,305,0,0,6,0,2
26,306,0,0,1,0,2
26,307,0,0,6,2,2
26,308,0,0,4,2,2
26,309,0,0,1,2,2
26,310,0,0,5,2,2
26,311,0,0,5,6,2
26,312,0,0,3,0,2
26,313,0,0,5,2,2
26,314,0,0,4,0,2
26,315,0,0,3,0,2
26,316,0,0,4,0,2
26,317,0,0,3,2,2
26,318,0,0,2,1,2
26,319,0,0,1,0,2
26,320,0,0,5,0,2
26,321,0,0,4,2,2
26,322,0,0,1,5,2
26,323,0,0,2,0,2
26,324,0,0,1,0,2
26,325,0,0,6,0,2
26,326,0,0,2,0,2
26,327,0,0,2,3,2
26,328,0,0,6,3,2
26,329,0,0,3,2,2
26,330,0,0,1,2,2
26,331,0,0,6,2,2
26,332,0,0,3,4,2
26,333,0,0,3,2,2
26,334,0,0,2,4,2
26,335,0,0,6,0,2
26,336,0,0,1,0,2
26,337,0,0,5,0,2
26,338,0,0,5,0,2
26,339,0,0,1,2,2
26,340,0,0,5,0,2
26,341,0,0,5,2,2
26,342,0,0,6,2,2
26,343,0,0,4,2,2
26,344,0,0,4,0,2
26,345,0,0,6,0,2
26,346,0,0,3,2,2
26,347,0,0,3,0,2
26,348,0,0,2,0,2
26,349,0,0,5,0,2
26,350,0,0,4,0,2
26,351,0,0,6,2,2
26,352,0,0,3,0,2
26,353,0,0,2,0,2
26,354,0,0,3,0,2
26,355,0,0,4,2,2
26,356,0,0,2,0,2
26,357,0,0,1,0,2
26,358,0,0,6,0,2
26,359,0,0,2,5,2
26,360,0,0,2,6,2
52,1,1,1.707619429,3,5,6
52,2,1,2.725184917,2,0,6
52,3,0,1.476555109,5,2,6
52,4,0,2.602845192,2,0,6
52,5,1,3.378066301,3,0,6
52,6,1,1.453169823,1,5,6
52,7,1,1.631259441,2,5,6
52,8,1,2.00695467,3,5,6
52,9,1,1.2347579,2,0,6
52,10,0,1.274467945,2,5,6
52,11,1,3.471530914,3,0,6
52,12,1,2.589609385,3,0,6
52,13,0,2.068300247,5,4,6
52,14,1,4.863559008,1,5,6
52,15,1,2.736501217,2,6,6
52,16,1,3.368989229,5,0,6
52,17,1,1.755563974,4,0,6
52,18,1,2.842390299,6,5,6
52,19,0,2.409531832,4,3,6
52,20,1,3.419987202,5,0,6
52,21,1,2.220716953,1,0,6
52,22,1,2.593539,5,1,6
52,23,1,3.380331278,3,5,6
52,24,1,2.446315289,6,1,6
52,25,1,1.334154129,1,0,6
52,26,1,2.089778423,6,0,6
52,27,1,3.485813856,6,0,6
52,28,1,2.962400913,5,0,6
52,29,1,1.170417786,5,6,6
52,30,0,1.935874701,4,5,6
52,31,1,2.196898937,6,0,6
52,32,1,1.164098024,2,0,6
52,33,0,1.280661106,1,5,6
52,34,1,3.138698816,1,0,6
52,35,1,2.678112745,2,0,6
52,36,1,1.910209894,4,5,6
52,37,1,2.317508698,4,0,6
52,38,1,1.078526497,4,0,6
52,39,1,1.478009939,6,0,6
52,40,1,0.992691517,5,0,6
52,41,1,2.593496323,6,5,6
52,42,1,2.903364182,4,5,6
52,43,1,1.496253967,3,0,6
52,44,1,2.465355873,3,0,6
52,45,1,1.851947546,2,5,6
52,46,1,2.185767889,3,5,6
52,47,1,3.862998962,6,5,6
52,48,1,2.300762892,1,5,6
52,49,1,3.050563097,1,0,6
52,50,1,3.711318016,4,0,6
52,51,1,1.527908087,1,5,6
52,52,1,1.253809214,6,0,6
52,53,1,1.772206306,5,3,6
52,54,1,2.388317108,3,2,6
52,55,1,2.133893251,4,0,6
52,56,1,1.838832378,5,0,6
52,57,1,2.469298601,2,5,6
52,58,1,2.945910931,1,0,6
52,59,1,1.985862017,6,5,6
52,60,1,2.680213928,4,5,6
52,61,1,4.986906052,3,2,6
52,62,1,2.142805815,2,0,6
52,63,1,3.304419756,1,5,6
52,64,1,5.235418081,4,5,6
52,65,1,2.21619916,3,0,6
52,66,1,1.477944613,2,5,6
52,67,1,1.183841467,4,0,6
52,68,1,2.930494308,4,5,6
52,69,1,1.400524855,4,0,6
52,70,1,2.419559717,5,1,6
52,71,1,2.180463076,6,1,6
52,72,1,1.351536274,4,0,6
52,73,1,2.381036282,2,5,6
52,74,1,4.394220591,3,5,6
52,75,1,1.632756948,6,0,6
52,76,1,2.213302612,3,5,6
52,77,1,1.590283155,4,0,6
52,78,1,2.221113205,1,0,6
52,79,1,2.589118004,3,5,6
52,80,0,1.838077068,2,5,6
52,81,1,3.014629602,6,5,6
52,82,1,1.536544085,6,0,6
52,83,1,2.52255702,1,5,6
52,84,1,1.267369986,2,0,6
52,85,1,2.034441471,4,3,6
52,86,1,4.032256126,3,0,6
52,87,1,1.216860294,2,0,6
52,88,1,4.101588964,5,0,6
52,89,1,1.404912233,1,5,6
52,90,1,0.867291451,2,0,6
52,91,1,1.719250917,1,0,6
52,92,1,2.752563238,3,5,6
52,93,1,1.375592709,2,6,6
52,94,1,1.500325203,1,0,6
52,95,1,1.173777342,2,5,6
52,96,1,0.93426609,5,0,6
52,97,1,2.418300867,1,5,6
52,98,1,1.951040506,3,0,6
52,99,1,1.704406261,6,0,6
52,100,1,1.838201523,4,0,6
52,101,1,1.783503056,6,0,6
52,102,1,1.960924864,5,6,6
52,103,1,3.036977053,5,2,6
52,104,1,2.322936058,3,0,6
52,105,1,1.757889032,5,0,6
52,106,1,2.041953087,1,5,6
52,107,1,1.901019812,6,5,6
52,108,1,1.71409893,5,4,6
52,109,1,0.995037794,5,0,6
52,110,1,1.785195827,6,5,6
52,111,1,3.622294188,4,5,6
52,112,1,1.907830715,2,0,6
52,113,1,1.290822506,1,0,6
52,114,1,1.494072437,6,5,6
52,115,1,2.785822153,6,0,6
52,116,1,3.938634157,5,3,6
52,117,1,1.75244236,1,0,6
52,118,1,1.545598269,4,5,6
52,119,1,2.750504732,5,0,6
52,120,1,3.215970039,3,0,6
52,121,1,1.961520195,3,0,6
52,122,1,2.340998173,1,0,6
52,123,1,1.248883009,3,5,6
52,124,1,1.071740627,6,0,6
52,125,1,1.683517694,4,0,6
52,126,1,2.852199078,1,0,6
52,127,1,1.36330533,5,0,6
52,128,1,1.519744396,6,5,6
52,129,1,1.316140175,1,0,6
52,130,1,1.41311121,1,0,6
52,131,1,1.57444191,5,2,6
52,132,1,0.995298386,6,0,6
52,133,1,1.248125315,4,5,6
52,134,1,0.935834169,3,5,6
52,135,1,1.63593626,3,0,6
52,136,1,2.30684495,3,0,6
52,137,1,1.758775234,1,5,6
52,138,1,1.532211065,2,6,6
52,139,1,1.982660294,4,5,6
52,140,1,1.21254611,3,5,6
52,141,1,1.654364824,6,1,6
52,142,1,1.442721367,6,0,6
52,143,1,1.105854511,4,5,6
52,144,1,1.694125175,1,5,6
52,145,1,2.008843184,5,1,6
52,146,1,1.080989122,4,0,6
52,147,1,2.877233028,2,5,6
52,148,1,3.339524746,4,0,6
52,149,1,1.349336386,1,5,6
52,150,1,1.497650862,2,5,6
52,151,1,1.320704937,6,5,6
52,152,1,1.732547998,5,0,6
52,153,1,1.532998323,2,0,6
52,154,1,1.179757357,5,0,6
52,155,1,1.212276936,4,0,6
52,156,1,1.163531065,5,3,6
52,157,1,1.074810266,6,0,6
52,158,0,0.95602107,5,6,6
52,159,1,2.500388861,2,0,6
52,160,1,2.534982443,2,0,6
52,161,1,1.939005375,6,0,6
52,162,1,2.394866228,4,3,6
52,163,1,2.764669895,3,0,6
52,164,1,3.133449316,2,5,6
52,165,1,1.558525085,5,4,6
52,166,1,1.997572899,1,5,6
52,167,1,1.556003094,6,5,6
52,168,1,1.804623127,2,0,6
52,169,1,1.426507235,2,5,6
52,170,1,2.309309244,1,0,6
52,171,1,1.76129508,5,0,6
52,172,1,2.205281496,4,0,6
52,173,1,3.184202194,4,5,6
52,174,1,1.329339027,5,0,6
52,175,1,1.824677944,1,5,6
52,176,1,1.44644022,3,0,6
52,177,1,1.24946332,3,5,6
52,178,1,0.811892033,2,0,6
52,179,1,1.829259157,6,5,6
52,180,1,2.231817484,3,2,6
52,181,1,3.187750578,5,0,6
52,182,1,4.716798067,5,0,6
52,183,1,1.873902798,6,5,6
52,184,1,2.151161432,5,3,6
52,185,1,1.619382143,1,0,6
52,186,1,1.469321966,1,5,6
52,187,1,1.175644875,1,0,6
52,188,1,0.906712294,2,0,6
52,189,1,1.223120451,2,0,6
52,190,1,1.464751959,3,0,6
52,191,1,1.186266422,4,5,6
52,192,1,1.251268864,1,5,6
52,193,1,1.159320593,3,0,6
52,194,0,1.040760756,3,2,6
52,195,1,2.171518326,4,5,6
52,196,1,2.437826157,6,1,6
52,197,1,2.869811296,4,0,6
52,198,1,2.23207593,6,5,6
52,199,1,6.673200369,1,0,6
52,200,1,1.970740318,3,5,6
52,201,1,3.102627039,6,0,6
52,202,1,1.901437283,4,5,6
52,203,1,1.209333181,5,0,6
52,204,1,2.663955688,1,0,6
52,205,1,2.486724615,4,0,6
52,206,1,1.100994349,1,5,6
52,207,1,1.407379866,6,0,6
52,208,1,0.97502327,4,0,6
52,209,1,0.834132195,3,5,6
52,210,1,1.969957829,5,1,6
52,211,1,2.372334957,4,5,6
52,212,1,1.123682499,6,0,6
52,213,1,1.924395323,2,6,6
52,214,1,4.53967905,2,5,6
52,215,1,1.389652491,5,0,6
52,216,1,1.583167791,1,0,6
52,217,1,1.458461761,3,0,6
52,218,1,1.726815701,5,2,6
52,219,1,1.341594696,1,5,6
52,220,1,1.476517677,3,5,6
52,221,1,1.28116703,5,0,6
52,222,1,1.300594091,1,5,6
52,223,1,1.133602381,4,0,6
52,224,1,1.753680229,2,5,6
52,225,1,1.582002878,6,0,6
52,226,1,1.351673126,2,0,6
52,227,1,0.984371185,4,0,6
52,228,1,0.953714132,2,5,6
52,229,1,1.800313234,4,3,6
52,230,1,1.288627863,3,0,6
52,231,1,1.643762827,2,5,6
52,232,1,1.587362051,3,0,6
52,233,1,2.638930559,5,4,6
52,234,1,1.163380146,6,5,6
52,235,1,1.28976965,6,5,6
52,236,1,0.888909101,2,0,6
52,237,1,1.747517824,2,0,6
52,238,1,2.226571083,5,6,6
52,239,1,1.488311291,3,5,6
52,240,1,1.208037615,6,0,6
52,241,1,1.582458735,5,3,6
52,242,1,1.721137047,2,0,6
52,243,1,3.101297855,1,5,6
52,244,1,3.16671896,3,2,6
52,245,1,1.118008852,1,0,6
52,246,1,1.554572821,4,5,6
52,247,1,3.124658108,1,5,6
52,248,1,2.039856434,3,5,6
52,249,1,1.279891968,6,5,6
52,250,1,3.206535339,2,5,6
52,251,1,1.760438442,4,5,6
52,252,1,4.109961033,5,2,6
52,253,1,1.917059183,1,0,6
52,254,1,3.951583862,3,0,6
52,255,1,2.456246138,5,0,6
52,256,1,1.724555969,4,0,6
52,257,1,1.27960515,3,0,6
52,258,1,1.445839882,3,5,6
52,259,1,1.339193583,4,0,6
52,260,1,1.474037886,6,1,6
52,261,1,1.359175444,4,5,6
52,262,1,1.392236233,5,0,6
52,263,1,1.876466274,5,1,6
52,264,1,1.000520229,4,0,6
52,265,1,0.963386297,5,0,6
52,266,1,1.106134176,6,0,6
52,267,1,1.047671318,1,5,6
52,268,1,1.300195932,5,6,6
52,269,1,1.378613949,4,3,6
52,270,1,1.134737968,3,5,6
52,271,1,1.082475185,5,0,6
52,272,1,2.022938967,2,5,6
52,273,1,0.958902121,3,0,6
52,274,1,0.891401291,6,0,6
52,275,1,1.83042407,1,0,6
52,276,1,2.136280298,6,0,6
52,277,1,1.32592392,3,5,6
52,278,1,2.091443062,6,0,6
52,279,1,1.817043304,5,4,6
52,280,1,1.128249407,6,5,6
52,281,1,1.127565861,2,5,6
52,282,1,1.689414024,2,6,6
52,283,1,1.448377132,2,0,6
52,284,1,2.992441177,6,0,6
52,285,1,4.671113253,6,5,6
52,286,1,1.366104841,1,5,6
52,287,1,1.743045092,5,0,6
52,288,1,1.022267103,2,0,6
52,289,1,1.293855906,2,5,6
52,290,1,1.041573286,4,0,6
52,291,1,0.924449444,2,0,6
52,292,1,0.91506362,4,0,6
52,293,1,1.366940975,1,0,6
52,294,1,1.65379715,4,5,6
52,295,1,1.181662083,6,5,6
52,296,1,1.116133213,1,0,6
52,297,1,0.872146845,2,0,6
52,298,1,0.915132284,3,0,6
52,299,1,1.314314842,1,5,6
52,300,1,1.130609751,3,0,6
52,301,1,1.745025873,4,5,6
52,302,1,1.545359612,3,5,6
52,303,1,1.74891305,6,0,6
52,304,1,1.001603842,5,6,6
52,305,1,1.990643024,1,0,6
52,306,1,1.305483818,2,0,6
52,307,1,1.182077885,3,0,6
52,308,1,0.891149282,6,0,6
52,309,1,0.810186863,1,5,6
52,310,1,0.740891695,4,0,6
52,311,1,1.265440941,6,0,6
52,312,1,0.796427965,4,5,6
52,313,1,1.07938385,6,5,6
52,314,1,1.053528786,4,0,6
52,315,1,1.121381283,5,0,6
52,316,1,1.207579374,5,0,6
52,317,1,1.324374199,5,3,6
52,318,1,2.487467289,3,5,6
52,319,1,1.032293081,2,5,6
52,320,1,1.266976595,6,5,6
52,321,1,1.07843852,4,5,6
52,322,1,1.067715168,6,0,6
52,323,1,0.858776808,5,0,6
52,324,1,0.930279732,3,5,6
52,325,1,0.994645357,2,0,6
52,326,1,1.35426116,5,0,6
52,327,1,2.988241911,3,0,6
52,328,1,1.463365316,3,5,6
52,329,1,1.585149527,2,0,6
52,330,1,1.500604391,1,0,6
52,331,1,1.099119186,6,5,6
52,332,1,1.471935272,1,5,6
52,333,1,1.408402681,4,5,6
52,334,1,0.879517555,6,0,6
52,335,1,0.970878363,2,5,6
52,336,1,1.205119848,3,0,6
52,337,1,0.993227243,1,5,6
52,338,1,0.946126223,6,5,6
52,339,1,1.641310453,5,1,6
52,340,1,1.334136486,1,0,6
52,341,1,0.965880632,2,6,6
52,342,1,1.275291443,4,0,6
52,343,1,1.096608877,5,2,6
52,344,0,1.529908895,3,0,6
52,345,1,1.975395203,3,2,6
52,346,1,1.467195511,3,0,6
52,347,1,1.617471933,2,5,6
52,348,1,1.599454403,1,0,6
52,349,1,1.322688341,1,5,6
52,350,1,1.128953934,5,0,6
52,351,1,1.143557072,2,0,6
52,352,1,1.425738096,4,0,6
52,353,1,0.953057766,4,0,6
52,354,1,0.915818214,2,5,6
52,355,1,1.146624088,6,1,6
52,356,1,0.869456291,2,0,6
52,357,1,1.315894842,1,5,6
52,358,1,1.227090597,5,4,6
52,359,1,2.262923956,1,0,6
52,360,1,1.131249428,4,3,6
53,1,1,3.121167898,4,0,2
53,2,1,3.37015605,5,6,2
53,3,1,1.990692854,3,0,2
53,4,1,1.64117074,4,0,2
53,5,0,0.808339834,3,2,2
53,6,1,1.581679583,6,0,2
53,7,1,2.487474918,1,2,2
53,8,0,2.514408112,6,0,2
53,9,1,1.781204939,5,2,2
53,10,1,4.59499073,6,0,2
53,11,1,2.84023118,6,2,2
53,12,1,5.214658976,5,2,2
53,13,0,1.000717402,1,2,2
53,14,1,0.918504953,6,0,2
53,15,1,1.645339012,6,3,2
53,16,1,1.268805504,1,0,2
53,17,1,1.475517035,4,2,2
53,18,1,2.196462154,1,0,2
53,19,1,2.660259247,3,0,2
53,20,0,0.578816414,3,2,2
53,21,1,2.532683372,2,0,2
53,22,1,2.421367645,6,2,2
53,23,1,1.428114891,4,1,2
53,24,1,3.48545742,4,2,2
53,25,1,1.695930719,1,0,2
53,26,1,1.934864998,4,2,2
53,27,1,3.502318144,5,0,2
53,28,1,2.011517286,1,0,2
53,29,1,3.765854597,5,2,2
53,30,1,2.558821201,3,2,2
53,31,1,1.662460804,6,2,2
53,32,1,1.238483906,2,5,2
53,33,1,3.125054836,5,2,2
53,34,1,2.186103582,5,0,2
53,35,1,3.593457937,4,2,2
53,36,1,3.746203661,2,4,2
53,37,1,2.305281162,2,3,2
53,38,1,2.678617954,2,6,2
53,39,1,1.545208454,4,0,2
53,40,0,2.399413824,2,0,2
53,41,1,2.319051743,2,0,2
53,42,1,2.156223059,2,0,2
53,43,1,1.543035507,3,2,2
53,44,0,1.182718992,3,4,2
53,45,0,3.14669776,5,0,2
53,46,0,2.654105663,1,0,2
53,47,1,1.793103456,6,2,2
53,48,1,1.716745138,3,0,2
53,49,1,2.054400682,3,0,2
53,50,1,0.867179155,5,0,2
53,51,0,2.334928036,1,2,2
53,52,1,3.587297678,3,0,2
53,53,1,1.84247613,2,0,2
53,54,1,1.891457319,5,0,2
53,55,0,6.325145721,2,1,2
53,56,0,5.356543779,1,2,2
53,57,0,1.189602137,4,0,2
53,58,1,2.37898612,4,0,2
53,59,1,1.474323034,6,0,2
53,60,0,2.652234077,1,5,2
53,61,1,3.227787018,5,2,2
53,62,1,1.379224539,1,0,2
53,63,1,2.815957546,3,2,2
53,64,1,1.129496813,3,2,2
53,65,1,2.565917969,4,0,2
53,66,1,1.840768576,5,6,2
53,67,1,1.79601717,4,2,2
53,68,0,1.674371719,1,0,2
53,69,1,0.965383768,5,2,2
53,70,1,1.156817913,3,2,2
53,71,1,2.734689951,5,0,2
53,72,0,1.224488497,4,0,2
53,73,1,1.952043056,6,2,2
53,74,1,4.848839998,5,2,2
53,75,1,1.202391148,5,0,2
53,76,0,0.928488493,5,0,2
53,77,1,2.186163187,1,5,2
53,78,1,2.401834965,3,0,2
53,79,1,1.833858967,3,0,2
53,80,1,1.41879797,1,0,2
53,81,1,1.465517998,2,3,2
53,82,1,4.975890636,6,0,2
53,83,1,1.127129078,1,2,2
53,84,0,8.64559865,6,0,2
53,85,0,3.526594639,4,2,2
53,86,1,5.232699871,2,4,2
53,87,1,2.519082785,2,0,2
53,88,1,1.570972204,4,2,2
53,89,1,1.420944691,5,0,2
53,90,1,1.502932549,1,2,2
53,91,1,2.757470608,1,0,2
53,92,1,1.884944677,4,0,2
53,93,0,2.936739683,2,0,2
53,94,1,1.492279053,4,2,2
53,95,1,5.441836119,6,0,2
53,96,1,5.865628958,3,0,2
53,97,1,1.193262815,2,0,2
53,98,1,1.12021327,2,0,2
53,99,1,0.976283312,4,0,2
53,100,0,1.132638454,2,5,2
53,101,0,1.787680864,2,0,2
53,102,1,0.945489407,6,0,2
53,103,1,1.600843906,3,0,2
53,104,1,1.273947716,6,0,2
53,105,1,1.343226194,5,2,2
53,106,0,3.175887823,1,2,2
53,107,1,1.856258869,4,0,2
53,108,1,2.618113518,6,3,2
53,109,1,3.034737825,5,0,2
53,110,1,2.433955669,3,0,2
53,111,1,2.159893751,2,1,2
53,112,1,3.781126022,3,4,2
53,113,0,1.020782709,2,6,2
53,114,1,2.443420887,3,2,2
53,115,1,1.90281558,1,2,2
53,116,1,0.885208607,1,0,2
53,117,1,2.166022301,4,1,2
53,118,1,2.519344091,6,2,2
53,119,1,1.716278791,6,2,2
53,120,0,2.423772573,6,2,2
53,121,0,3.647356987,1,0,2
53,122,1,2.54595685,4,0,2
53,123,1,1.559573174,3,0,2
53,124,1,3.158938885,4,2,2
53,125,1,1.450871468,5,0,2
53,126,1,1.464203596,4,1,2
53,127,1,2.782300949,4,2,2
53,128,1,3.238881588,3,0,2
53,129,1,4.201932907,2,4,2
53,130,1,2.695081949,2,0,2
53,131,1,4.794407368,2,0,2
53,132,1,2.624103308,2,6,2
53,133,1,3.728652,2,5,2
53,134,1,1.574040651,6,0,2
53,135,1,1.999656916,6,0,2
53,136,1,2.244514227,1,2,2
53,137,1,2.575608253,6,3,2
53,138,1,1.377727032,4,0,2
53,139,1,1.447462797,5,2,2
53,140,1,2.296378374,4,0,2
53,141,0,0.938920736,6,2,2
53,142,1,1.762238979,5,2,2
53,143,1,1.320814371,4,2,2
53,144,1,1.641303062,4,0,2
53,145,0,1.621736765,4,2,2
53,146,1,1.728386164,2,1,2
53,147,1,2.09684062,2,3,2
53,148,1,1.80809474,1,5,2
53,149,0,2.252726316,2,0,2
53,150,0,2.771022081,3,2,2
53,151,1,2.273205042,1,2,2
53,152,1,3.582808971,1,0,2
53,153,1,2.343704939,1,2,2
53,154,1,1.978188753,6,2,2
53,155,0,2.184364319,6,0,2
53,156,0,3.722218513,1,0,2
53,157,1,3.1707654,3,0,2
53,158,1,1.206932545,5,0,2
53,159,0,1.789533615,5,2,2
53,160,1,1.674805403,5,0,2
53,161,1,2.306092978,4,0,2
53,162,1,2.515850782,1,0,2
53,163,1,1.793181419,5,0,2
53,164,0,1.764016628,3,2,2
53,165,1,1.460876942,6,2,2
53,166,1,2.879095078,5,2,2
53,167,1,1.71958828,1,2,2
53,168,1,2.102110624,2,0,2
53,169,1,2.586933851,6,0,2
53,170,1,1.427225828,5,6,2
53,171,1,1.321922779,3,0,2
53,172,1,1.889358521,6,0,2
53,173,1,2.193375349,3,0,2
53,174,1,1.67925024,1,0,2
53,175,1,3.952521324,3,2,2
53,176,1,2.367507219,5,0,2
53,177,1,2.014935017,3,2,2
53,178,1,4.23052597,3,4,2
53,179,1,3.117856979,6,2,2
53,180,1,1.174631834,2,0,2
53,181,0,3.72682023,2,3,2
53,182,0,1.518843889,1,2,2
53,183,0,1.047954082,5,0,2
53,184,0,0.984172583,4,0,2
53,185,1,4.583222866,5,6,2
53,186,1,1.225939512,3,0,2
53,187,1,1.624307632,6,2,2
53,188,1,1.105932474,4,0,2
53,189,1,1.177318573,6,3,2
53,190,1,1.16415596,5,2,2
53,191,1,0.935663223,4,0,2
53,192,1,1.99157095,3,0,2
53,193,1,1.630289793,4,2,2
53,194,1,2.251674891,1,2,2
53,195,1,1.162394285,2,1,2
53,196,1,1.368482828,3,2,2
53,197,1,0.667639732,4,0,2
53,198,1,1.419405937,5,2,2
53,199,1,2.041818619,3,0,2
53,200,1,0.891434908,1,0,2
53,201,1,1.23474431,4,2,2
53,202,1,0.914340258,4,0,2
53,203,1,3.263461828,1,0,2
53,204,1,1.815683842,6,0,2
53,205,0,0.676482916,1,5,2
53,206,1,1.533431292,2,0,2
53,207,1,1.09035182,4,1,2
53,208,1,1.871803999,1,0,2
53,209,1,1.103145599,1,0,2
53,210,0,1.056968689,2,0,2
53,211,1,2.18876195,6,0,2
53,212,0,0.733170271,5,0,2
53,213,0,1.357821226,6,2,2
53,214,1,1.836850882,3,2,2
53,215,1,0.829235792,3,0,2
53,216,1,1.496024132,2,4,2
53,217,1,2.520872831,3,4,2
53,218,0,2.403920889,2,5,2
53,219,1,1.350585699,5,2,2
53,220,0,4.377159119,2,6,2
53,221,1,2.645170689,3,2,2
53,222,1,1.058313608,2,0,2
53,223,1,1.880557537,3,2,2
53,224,1,1.647289991,5,0,2
53,225,1,1.71094799,5,0,2
53,226,1,1.908173084,1,2,2
53,227,1,1.021273851,2,0,2
53,228,1,2.617782831,4,2,2
53,229,1,2.120205164,4,2,2
53,230,1,0.926383257,6,2,2
53,231,1,1.361432076,1,0,2
53,232,1,1.519532442,6,2,2
53,233,1,1.546596766,6,0,2
53,234,1,1.449854851,6,0,2
53,235,1,1.793572903,5,0,2
53,236,1,0.96680522,2,0,2
53,237,1,1.127876282,6,0,2
53,238,0,3.009521246,5,2,2
53,239,1,0.826961994,3,0,2
53,240,1,1.051545858,1,2,2
53,241,0,1.378068924,2,0,2
53,242,0,2.246020317,1,0,2
53,243,0,1.184035063,2,1,2
53,244,0,1.178833008,6,0,2
53,245,1,0.687967777,4,0,2
53,246,1,1.03762126,2,0,2
53,247,1,3.374788761,2,4,2
53,248,1,1.359882832,3,2,2
53,249,1,1.002912045,2,0,2
53,250,1,1.194180727,3,0,2
53,251,1,1.503975391,3,2,2
53,252,1,0.841470718,6,3,2
53,253,0,2.280455112,4,1,2
53,254,1,0.965306282,3,0,2
53,255,1,2.067382574,5,2,2
53,256,1,1.318542004,6,0,2
53,257,1,2.010658026,6,0,2
53,258,1,1.152117014,3,4,2
53,259,0,1.18497014,5,0,2
53,260,1,2.53148675,1,0,2
53,261,1,1.59613657,6,2,2
53,262,1,1.496183872,5,2,2
53,263,1,1.058928251,6,0,2
53,264,1,0.709629297,6,0,2
53,265,1,1.508012056,3,0,2
53,266,1,1.303850651,2,3,2
53,267,1,1.732619286,3,0,2
53,268,1,1.172073364,4,2,2
53,269,1,2.479754686,6,2,2
53,270,1,2.240473986,2,0,2
53,271,1,1.984241486,5,0,2
53,272,1,1.153944254,2,0,2
53,273,1,0.976144791,4,0,2
53,274,1,1.080839157,4,2,2
53,275,1,1.051873922,1,2,2
53,276,1,1.057845354,1,0,2
53,277,0,1.20785284,5,0,2
53,278,0,0.788032055,1,0,2
53,279,1,8.259227037,6,2,2
53,280,1,0.922306776,1,2,2
53,281,0,1.231837511,4,0,2
53,282,1,3.53441,5,6,2
53,283,1,0.878889084,4,2,2
53,284,1,5.144644976,6,2,2
53,285,1,2.549487114,1,5,2
53,286,1,1.788288116,5,0,2
53,287,1,1.618507147,1,2,2
53,288,1,1.62855196,4,2,2
53,289,0,1.215190172,5,0,2
53,290,1,2.017738104,3,2,2
53,291,1,1.504748344,4,0,2
53,292,1,1.832080841,4,0,2
53,293,1,3.701521873,3,2,2
53,294,1,0.902728796,3,0,2
53,295,1,1.135763645,1,2,2
53,296,1,6.641274452,2,5,2
53,297,0,2.347696304,5,2,2
53,298,0,1.140258551,1,0,2
53,299,1,1.578871965,2,6,2
53,300,0,1.320359468,5,2,2
53,301,1,2.262253046,3,0,2
53,302,0,2.696818829,6,2,2
53,303,0,0.939558744,4,2,2
53,304,0,0.933665276,1,0,2
53,305,0,1.689045668,3,0,2
53,306,1,1.667536974,6,0,2
53,307,1,1.108744144,5,2,2
53,308,0,1.877614498,2,4,2
53,309,1,4.71142149,3,0,2
53,310,1,1.668654203,1,0,2
53,311,0,1.09510088,1,0,2
53,312,1,1.493562222,2,5,2
53,313,1,1.448891163,4,2,2
53,314,1,0.771391869,6,0,2
53,315,0,1.753480196,5,2,2
53,316,1,5.529674768,2,3,2
53,317,1,2.228078127,2,1,2
53,318,1,1.452613831,5,0,2
53,319,1,1.205619812,5,0,2
53,320,1,0.93462038,5,0,2
53,321,1,0.816257954,2,0,2
53,322,1,1.518237829,3,2,2
53,323,0,1.174448729,1,2,2
53,324,0,0.635254383,4,0,2
53,325,1,0.864500999,1,0,2
53,326,1,1.480989218,3,2,2
53,327,1,0.589746952,2,6,2
53,328,0,1.148099899,6,0,2
53,329,1,2.90814805,2,0,2
53,330,1,1.231369019,1,2,2
53,331,1,1.005866289,1,2,2
53,332,1,1.779418707,3,2,2
53,333,1,1.203968763,4,0,2
53,334,1,0.781727552,6,0,2
53,335,1,1.116590738,5,2,2
53,336,1,1.673485518,3,4,2
53,337,1,1.533395767,4,0,2
53,338,1,3.085125923,3,0,2
53,339,1,1.139644623,2,0,2
53,340,1,1.189259768,3,0,2
53,341,1,1.459718943,4,2,2
53,342,0,1.065654039,1,2,2
53,343,0,1.742567539,5,2,2
53,344,1,3.718361855,5,6,2
53,345,0,1.255070925,3,2,2
53,346,1,0.907367706,4,2,2
53,347,1,1.095398188,5,0,2
53,348,0,0.667991877,6,2,2
53,349,1,0.804674625,6,0,2
53,350,1,0.82490468,1,0,2
53,351,0,0.846180677,4,1,2
53,352,0,1.559481382,6,2,2
53,353,1,1.372423172,5,0,2
53,354,1,1.12213254,2,0,2
53,355,0,2.459957838,6,2,2
53,356,1,1.526554346,4,0,2
53,357,0,0.952510595,2,0,2
53,358,0,1.676269531,6,3,2
53,359,0,1.30094409,1,5,2
53,360,1,0.993642807,4,0,2
54,1,1,3.431229591,1,0,1
54,2,0,1.17590189,2,4,1
54,3,1,0.909763575,6,1,1
54,4,1,0.796542883,6,1,1
54,5,0,0.582577705,6,0,1
54,6,1,4.911432981,4,0,1
54,7,1,3.035202503,3,1,1
54,8,1,2.629937649,3,0,1
54,9,1,2.721970797,6,0,1
54,10,1,2.285800695,4,0,1
54,11,1,5.22053051,1,3,1
54,12,1,2.757860184,5,1,1
54,13,1,1.14393115,3,1,1
54,14,1,3.798207521,5,1,1
54,15,1,1.869364023,2,1,1
54,16,1,2.164746284,2,0,1
54,17,1,2.415598631,1,4,1
54,18,1,3.10969758,5,6,1
54,19,1,1.824044466,3,1,1
54,20,0,2.616490841,2,0,1
54,21,1,5.860654593,1,5,1
54,22,1,3.436085701,1,0,1
54,23,1,5.195947409,4,1,1
54,24,1,3.182681799,3,5,1
54,25,1,4.208623409,2,1,1
54,26,1,4.494491577,6,0,1
54,27,1,2.713995218,1,0,1
54,28,1,6.314144611,3,0,1
54,29,1,2.781992197,4,1,1
54,30,1,1.840464592,2,0,1
54,31,1,2.30956769,3,0,1
54,32,1,7.629441738,3,0,1
54,33,0,1.761714458,4,0,1
54,34,1,2.676590443,5,0,1
54,35,1,5.657844782,2,1,1
54,36,1,1.814266205,1,0,1
54,37,1,2.245127678,3,0,1
54,38,1,6.609247446,4,1,1
54,39,1,1.889308929,2,0,1
54,40,1,1.988049507,5,0,1
54,41,1,3.075033188,2,0,1
54,42,1,3.202529669,6,1,1
54,43,1,7.22425127,5,1,1
54,44,1,4.41383338,5,0,1
54,45,1,7.025773764,2,1,1
54,46,1,5.369838715,1,2,1
54,47,1,3.994322538,4,1,1
54,48,1,8.096183062,6,0,1
54,49,0,2.113957882,4,0,1
54,50,1,4.529653072,6,1,1
54,51,1,13.30539894,5,1,1
54,52,1,13.85114813,6,0,1
54,53,1,2.671435595,5,0,1
54,54,1,3.883764029,3,1,1
54,55,1,2.409446478,6,2,1
54,56,1,9.086586475,1,6,1
54,57,1,2.411896706,5,0,1
54,58,1,2.388329983,4,0,1
54,59,1,5.846450329,4,3,1
54,60,1,10.28371859,1,0,1
54,61,1,14.04864621,3,0,1
54,62,1,1.998124599,2,1,1
54,63,1,3.053661823,2,4,1
54,64,1,2.059661388,4,0,1
54,65,1,3.562713146,3,0,1
54,66,1,2.053406715,3,1,1
54,67,1,1.75959444,1,0,1
54,68,1,3.746930122,6,1,1
54,69,1,5.33650136,3,5,1
54,70,1,4.073584557,6,1,1
54,71,1,2.349767685,2,0,1
54,72,1,1.293794155,4,1,1
54,73,0,1.6040411,1,6,1
54,74,0,1.453061104,5,1,1
54,75,0,0.801230669,3,1,1
54,76,1,8.858850479,4,1,1
54,77,1,6.195262432,1,5,1
54,78,1,32.6870954,6,0,1
54,79,1,8.145620346,6,0,1
54,80,1,10.60498428,5,6,1
54,81,1,4.204899311,2,0,1
54,82,1,3.824217081,2,1,1
54,83,1,1.89714098,2,0,1
54,84,1,4.719321251,5,0,1
54,85,1,3.998920441,1,0,1
54,86,1,1.557629347,3,1,1
54,87,1,6.91522193,4,0,1
54,88,1,2.244340181,3,0,1
54,89,1,2.036061287,4,3,1
54,90,1,19.41472626,4,0,1
54,91,1,1.62498951,4,1,1
54,92,0,3.724850416,6,0,1
54,93,1,3.189615488,5,1,1
54,94,0,2.083851576,2,0,1
54,95,1,2.688522577,3,0,1
54,96,1,1.535579443,2,0,1
54,97,0,1.869004726,5,0,1
54,98,1,4.071956158,1,4,1
54,99,1,5.575998068,2,1,1
54,100,1,2.772822618,1,0,1
54,101,1,1.82834363,5,0,1
54,102,1,3.15071106,1,0,1
54,103,1,3.765171289,1,2,1
54,104,1,1.780379772,6,0,1
54,105,1,3.097652435,6,1,1
54,106,0,9.689389467,6,1,1
54,107,1,1.18089056,3,0,1
54,108,0,2.074691534,6,2,1
54,109,1,2.46999979,2,1,1
54,110,1,1.06643939,1,0,1
54,111,1,5.695403814,5,1,1
54,112,1,2.605570316,4,0,1
54,113,1,2.600586891,5,1,1
54,114,1,3.021130562,3,1,1
54,115,1,2.257616043,5,0,1
54,116,1,1.963497162,4,1,1
54,117,1,3.912596941,1,3,1
54,118,0,3.383729458,5,0,1
54,119,1,14.81223059,4,0,1
54,120,1,4.612472296,6,0,1
54,121,1,14.41036558,3,1,1
54,122,1,0.999047518,2,0,1
54,123,1,1.274497986,3,5,1
54,124,1,0.844016552,1,0,1
54,125,1,1.345769882,4,3,1
54,126,1,1.134844542,5,0,1
54,127,1,1.300265551,4,1,1
54,128,1,1.066310644,4,1,1
54,129,1,1.68905592,1,0,1
54,130,1,2.318892717,3,0,1
54,131,1,2.982050419,6,2,1
54,132,1,10.12129736,6,1,1
54,133,1,6.117292166,1,2,1
54,134,1,11.53377795,5,1,1
54,135,1,0.999618053,4,0,1
54,136,1,58.35794258,4,0,1
54,137,1,3.281322479,3,0,1
54,138,1,1.213085413,2,0,1
54,139,1,1.041473627,4,0,1
54,140,1,1.088066578,5,1,1
54,141,0,1.778307199,3,1,1
54,142,0,1.631084442,6,0,1
54,143,0,1.297813654,3,0,1
54,144,0,1.785049677,2,1,1
54,145,1,2.01925683,2,0,1
54,146,0,2.447184801,2,0,1
54,147,0,2.261058807,6,1,1
54,148,0,1.291445732,5,1,1
54,149,0,1.521754742,4,1,1
54,150,1,3.568478107,5,0,1
54,151,1,1.991552353,1,0,1
54,152,1,2.257529497,1,0,1
54,153,1,1.718570709,2,0,1
54,154,1,2.852627754,4,0,1
54,155,1,3.770124674,1,3,1
54,156,1,4.075278044,3,0,1
54,157,1,3.38928771,5,6,1
54,158,1,1.981408119,6,1,1
54,159,1,3.448079824,5,0,1
54,160,1,1.547689676,6,0,1
54,161,1,3.093900919,3,1,1
54,162,1,2.480581522,5,0,1
54,163,1,18.60127163,6,0,1
54,164,1,3.562725782,3,1,1
54,165,1,1.750351429,6,1,1
54,166,1,6.555138826,1,0,1
54,167,1,2.373604774,6,0,1
54,168,1,1.871889591,4,0,1
54,169,1,5.495247364,4,1,1
54,170,1,1.561350822,5,1,1
54,171,1,1.602110863,6,0,1
54,172,1,4.162744284,5,0,1
54,173,1,2.517804623,1,6,1
54,174,1,9.002342939,1,4,1
54,175,1,3.044700623,2,4,1
54,176,1,3.121566057,3,0,1
54,177,1,8.291923761,2,1,1
54,178,1,5.182561398,2,1,1
54,179,1,5.088716745,2,1,1
54,180,1,6.871456861,1,5,1
54,181,1,16.2438941,3,5,1
54,182,1,2.892302513,1,4,1
54,183,1,3.45493269,3,1,1
54,184,1,3.337455511,6,2,1
54,185,1,1.344192028,3,0,1
54,186,1,8.746918678,4,0,1
54,187,1,4.188786745,4,1,1
54,188,1,2.30518508,1,0,1
54,189,1,0.791692019,2,0,1
54,190,1,3.268307447,2,0,1
54,191,1,2.330972672,3,0,1
54,192,1,1.969669819,1,0,1
54,193,1,1.960372448,3,0,1
54,194,1,1.990261793,3,1,1
54,195,1,1.899672747,4,0,1
54,196,1,1.750982046,6,1,1
54,197,1,3.54873848,4,1,1
54,198,1,2.944722652,6,1,1
54,199,1,13.37136388,2,1,1
54,200,0,1.335460901,6,1,1
54,201,1,0.623684406,3,0,1
54,202,1,1.399173021,3,1,1
54,203,1,12.98108888,6,1,1
54,204,1,3.194983959,5,1,1
54,205,1,4.468719721,5,1,1
54,206,1,4.111258745,3,1,1
54,207,1,2.084438801,1,0,1
54,208,1,5.019695997,5,0,1
54,209,1,5.062361717,5,6,1
54,210,1,2.278653622,1,0,1
54,211,1,2.374837875,5,1,1
54,212,1,2.668168783,1,2,1
54,213,1,2.976848841,1,0,1
54,214,1,3.08157444,5,1,1
54,215,1,3.220462084,5,0,1
54,216,1,10.03706861,5,0,1
54,217,1,22.25270057,2,1,1
54,218,1,1.649777651,4,3,1
54,219,1,1.599978685,4,1,1
54,220,1,1.766032457,2,0,1
54,221,1,1.234077215,4,0,1
54,222,1,29.51444554,6,0,1
54,223,1,4.033715725,2,0,1
54,224,1,3.528495789,4,1,1
54,225,1,2.399233103,1,5,1
54,226,1,7.186645508,5,0,1
54,227,1,5.212759733,1,6,1
54,228,1,2.933151722,1,3,1
54,229,0,4.215900898,6,0,1
54,230,1,1.821265459,4,0,1
54,231,1,1.978782892,3,0,1
54,232,1,2.478351116,4,0,1
54,233,1,3.082800627,6,0,1
54,234,1,2.082237244,6,0,1
54,235,0,1.373617411,2,0,1
54,236,1,1.626926899,5,0,1
54,237,1,3.758698702,2,1,1
54,238,1,3.911448717,2,4,1
54,239,1,2.610145569,2,1,1
54,240,1,2.730243683,6,0,1
54,241,1,4.121548653,4,0,1
54,242,1,2.750058651,4,0,1
54,243,1,2.991613388,5,0,1
54,244,1,3.340502501,3,1,1
54,245,1,3.061781406,3,5,1
54,246,1,7.188967943,4,3,1
54,247,1,4.922490358,5,0,1
54,248,1,29.11325884,1,3,1
54,249,1,3.596244097,5,0,1
54,250,0,1.225266457,1,0,1
54,251,1,4.636455059,6,0,1
54,252,1,5.507416487,6,0,1
54,253,1,2.576898813,1,5,1
54,254,1,2.055671215,1,0,1
54,255,1,14.72919393,1,4,1
54,256,1,0.90717864,3,1,1
54,257,1,2.390717506,3,1,1
54,258,1,2.981366873,5,1,1
54,259,1,3.973310232,5,1,1
54,260,1,12.9303658,1,6,1
54,261,1,3.224554539,6,2,1
54,262,1,5.334153652,2,0,1
54,263,1,2.089724064,4,1,1
54,264,1,1.865034819,6,1,1
54,265,1,3.581475496,2,0,1
54,266,1,9.132375717,2,1,1
54,267,1,2.204741001,6,0,1
54,268,1,5.965098143,1,0,1
54,269,1,2.874978542,6,1,1
54,270,1,2.878988743,5,0,1
54,271,1,2.185130835,6,0,1
54,272,1,5.859458685,6,1,1
54,273,1,2.722771883,2,1,1
54,274,1,1.260750294,4,1,1
54,275,1,3.7279706,2,4,1
54,276,1,12.18126512,3,1,1
54,277,1,2.653521538,5,1,1
54,278,1,2.678271532,4,1,1
54,279,0,0.865283728,6,1,1
54,280,1,3.988533974,3,0,1
54,281,1,2.898719549,4,1,1
54,282,1,2.046408415,4,0,1
54,283,0,9.679523945,2,0,1
54,284,1,3.926597834,6,0,1
54,285,1,19.23702502,5,6,1
54,286,1,6.29328227,5,1,1
54,287,1,2.527594328,5,0,1
54,288,1,4.076157093,1,0,1
54,289,1,3.144922733,2,1,1
54,290,1,1.189353466,3,0,1
54,291,1,1.827744007,4,0,1
54,292,1,2.689496517,2,0,1
54,293,1,1.837119341,1,0,1
54,294,1,13.04892612,4,0,1
54,295,0,4.837930441,2,0,1
54,296,1,6.699016333,3,0,1
54,297,1,24.21754313,2,1,1
54,298,1,9.795962572,1,2,1
54,299,1,2.763863564,3,0,1
54,300,1,1.862968206,3,0,1
54,301,1,9.251912117,4,0,1
54,302,1,1.143496037,1,0,1
54,303,1,1.488297462,1,0,1
54,304,1,1.147241831,5,0,1
54,305,1,2.588461399,6,1,1
54,306,1,1.327691317,2,1,1
54,307,1,2.033046484,6,0,1
54,308,1,3.457170725,1,4,1
54,309,1,1.242402792,5,1,1
54,310,1,1.94345355,3,0,1
54,311,1,5.352997303,3,1,1
54,312,1,4.549814939,2,0,1
54,313,1,9.384416819,5,0,1
54,314,1,2.661600828,4,1,1
54,315,1,2.117478609,6,0,1
54,316,1,4.98396039,3,1,1
54,317,1,14.23504567,4,1,1
54,318,1,32.93650675,1,0,1
54,319,1,2.406449795,6,0,1
54,320,1,8.719218016,4,1,1
54,321,1,1.744958878,5,1,1
54,322,1,6.534649849,2,0,1
54,323,1,3.439504385,3,0,1
54,324,1,14.28960896,6,0,1
54,325,1,3.748739004,1,2,1
54,326,1,4.285196781,2,1,1
54,327,1,1.296471596,4,0,1
54,328,1,1.738340616,1,5,1
54,329,1,0.943648815,2,0,1
54,330,1,3.436235905,1,6,1
54,331,1,4.851708889,3,0,1
54,332,1,3.354110718,3,1,1
54,333,1,3.617723703,4,3,1
54,334,1,3.012017488,3,5,1
54,335,1,4.196653128,3,1,1
54,336,1,3.223975897,3,0,1
54,337,1,1.235553503,4,1,1
54,338,1,1.819047689,6,1,1
54,339,1,1.652082682,3,0,1
54,340,1,1.608313084,5,1,1
54,341,1,3.164404154,2,0,1
54,342,1,1.708389044,4,0,1
54,343,1,1.774011135,5,0,1
54,344,1,3.035471678,5,0,1
54,345,1,4.260752439,5,6,1
54,346,1,3.381522655,1,3,1
54,347,1,2.261238575,2,0,1
54,348,1,2.876487494,6,1,1
54,349,1,1.75004077,5,1,1
54,350,0,2.815723896,1,0,1
54,351,1,3.632730722,4,0,1
54,352,1,4.526224852,6,0,1
54,353,1,4.374480724,2,1,1
54,354,1,11.95400667,2,1,1
54,355,1,1.604782581,1,0,1
54,356,1,1.146767378,5,0,1
54,357,1,3.546454668,6,1,1
54,358,1,4.720077515,2,4,1
54,359,1,1.333683491,4,0,1
54,360,1,1.952572584,6,2,1
55,1,0,1.0735991,6,5,5
55,2,1,2.662883759,3,5,5
55,3,1,2.264990568,5,6,5
55,4,1,1.182042837,4,0,5
55,5,1,1.721254587,2,5,5
55,6,1,1.847126484,3,5,5
55,7,1,1.558324575,1,5,5
55,8,1,1.333969355,1,5,5
55,9,1,1.119846821,5,0,5
55,10,1,0.749432087,1,0,5
55,11,1,1.254789352,6,0,5
55,12,1,0.918333769,5,0,5
55,13,1,1.276000023,3,0,5
55,14,1,1.20728159,1,5,5
55,15,1,1.171290874,6,0,5
55,16,1,1.214709044,1,0,5
55,17,1,1.991094828,5,4,5
55,18,1,0.950018406,1,0,5
55,19,1,1.465842247,2,0,5
55,20,1,1.082871914,3,0,5
55,21,1,1.479702473,4,5,5
55,22,1,1.013630867,6,0,5
55,23,1,1.13863945,4,0,5
55,24,1,1.376752853,1,5,5
55,25,1,1.323207617,4,5,5
55,26,1,0.933222532,3,0,5
55,27,1,1.114114523,3,0,5
55,28,1,1.148704529,2,0,5
55,29,1,1.926281691,4,3,5
55,30,1,1.604263544,4,0,5
55,31,1,1.575529814,6,5,5
55,32,1,1.70416522,2,0,5
55,33,1,1.479449749,4,5,5
55,34,1,1.040214539,2,0,5
55,35,1,1.307309389,2,5,5
55,36,1,1.028933764,3,0,5
55,37,1,0.85041213,6,0,5
55,38,1,1.224212646,3,2,5
55,39,1,0.764630079,6,0,5
55,40,1,1.138037682,4,5,5
55,41,1,1.219894171,6,1,5
55,42,1,1.349230528,5,0,5
55,43,1,1.153475761,5,3,5
55,44,1,0.846367836,1,0,5
55,45,1,1.196810484,2,5,5
55,46,1,1.035747051,2,0,5
55,47,1,0.951375723,3,5,5
55,48,1,0.880281687,3,5,5
55,49,1,0.704770565,1,0,5
55,50,1,0.752439737,5,0,5
55,51,1,1.446896791,5,1,5
55,52,1,1.088414669,2,5,5
55,53,1,1.717238426,6,5,5
55,54,1,1.810728312,2,6,5
55,55,1,0.718440533,5,0,5
55,56,1,0.980794907,6,5,5
55,57,1,1.017110586,1,5,5
55,58,1,1.308406353,5,2,5
55,59,1,1.219033957,4,0,5
55,60,1,1.182486773,4,0,5
55,61,1,0.780661583,3,5,5
55,62,1,0.702607632,6,5,5
55,63,1,1.310683489,3,0,5
55,64,1,1.070297718,3,2,5
55,65,1,1.368779421,5,6,5
55,66,0,0.80861783,3,0,5
55,67,1,1.952003956,1,5,5
55,68,1,1.372993946,5,0,5
55,69,1,1.089031458,6,5,5
55,70,1,0.914250851,5,0,5
55,71,1,1.046928644,5,2,5
55,72,1,1.061148882,2,0,5
55,73,1,0.784059525,5,0,5
55,74,1,1.144769669,1,0,5
55,75,1,0.713067532,4,0,5
55,76,1,0.990162611,3,5,5
55,77,1,0.875784636,5,0,5
55,78,1,0.785311699,6,0,5
55,79,1,1.105294704,6,1,5
55,80,1,1.093793631,4,0,5
55,81,1,0.977771997,2,0,5
55,82,1,1.440178394,6,5,5
55,83,1,2.063925266,4,3,5
55,84,1,1.37242341,3,5,5
55,85,1,1.134768248,5,0,5
55,86,1,1.125414848,4,5,5
55,87,0,0.925152302,6,5,5
55,88,1,1.02683115,4,0,5
55,89,1,2.201997042,2,6,5
55,90,1,1.68418169,2,0,5
55,91,1,0.969365835,4,0,5
55,92,1,1.217193604,4,5,5
55,93,1,1.622404099,1,0,5
55,94,1,1.449943066,5,1,5
55,95,1,0.773189783,6,0,5
55,96,1,1.002242565,1,5,5
55,97,1,0.889014959,6,0,5
55,98,1,1.384683609,6,0,5
55,99,1,0.833931923,1,0,5
55,100,1,0.758116245,2,0,5
55,101,1,1.42933321,2,5,5
55,102,1,1.893291473,2,5,5
55,103,1,2.360087872,2,0,5
55,104,1,1.142958879,5,4,5
55,105,1,0.931725502,1,0,5
55,106,1,1.092784166,3,0,5
55,107,1,1.309738636,4,5,5
55,108,1,1.053105593,4,5,5
55,109,1,0.61083293,2,5,5
55,110,1,1.093893528,1,0,5
55,111,1,1.1951437,1,5,5
55,112,1,0.964041948,3,5,5
55,113,1,1.438337564,2,5,5
55,114,1,1.179969311,4,0,5
55,115,1,1.28144002,5,3,5
55,116,1,1.082620859,1,5,5
55,117,1,1.022398472,3,0,5
55,118,1,1.351471901,6,0,5
55,119,1,1.262116194,1,5,5
55,120,1,1.16554451,3,0,5
55,121,1,0.947467327,5,0,5
55,122,1,1.39931488,4,3,5
55,123,1,1.174788952,5,3,5
55,124,1,0.659554482,4,5,5
55,125,1,0.974052429,2,5,5
55,126,1,0.793840647,4,0,5
55,127,1,1.227754831,5,2,5
55,128,1,0.860488415,3,0,5
55,129,1,1.253908634,3,5,5
55,130,1,1.107754946,6,5,5
55,131,1,0.984491825,1,5,5
55,132,1,1.065752983,2,0,5
55,133,1,0.817158699,5,0,5
55,134,1,0.934429407,3,5,5
55,135,1,1.160437584,2,6,5
55,136,1,0.738570452,6,0,5
55,137,1,1.408622265,1,5,5
55,138,1,1.198785543,3,5,5
55,139,1,0.772099495,1,5,5
55,140,1,0.998809099,3,0,5
55,141,1,0.771875858,4,0,5
55,142,1,0.967233658,4,5,5
55,143,1,1.024176598,3,0,5
55,144,1,0.870931625,4,5,5
55,145,1,0.837889194,2,5,5
55,146,1,0.835489988,5,0,5
55,147,1,1.04580164,6,0,5
55,148,1,1.085051298,1,0,5
55,149,1,1.135898352,6,5,5
55,150,1,0.950668573,1,5,5
55,151,1,0.808767557,4,0,5
55,152,1,0.897868395,3,5,5
55,153,1,1.077682734,6,1,5
55,154,1,1.480320215,5,1,5
55,155,1,1.366604328,6,5,5
55,156,1,0.768323421,1,0,5
55,157,1,0.839734793,2,0,5
55,158,1,1.240615845,5,4,5
55,159,1,0.788975716,6,0,5
55,160,1,1.211102962,6,5,5
55,161,1,0.957736731,4,0,5
55,162,1,0.770799637,6,0,5
55,163,1,0.751559734,3,0,5
55,164,1,0.938068867,4,5,5
55,165,1,0.642876863,4,0,5
55,166,1,0.923337698,5,0,5
55,167,1,0.973531723,5,6,5
55,168,1,0.765011787,1,0,5
55,169,1,0.671297789,3,0,5
55,170,1,0.843148232,2,5,5
55,171,0,0.881734133,1,0,5
55,172,1,1.33392477,2,0,5
55,173,1,0.693449497,2,5,5
55,174,0,0.80210948,2,0,5
55,175,1,1.322053671,3,2,5
55,176,1,0.854088068,1,0,5
55,177,1,1.038044691,5,0,5
55,178,1,0.860950947,1,5,5
55,179,1,0.778573513,2,0,5
55,180,1,0.712502718,6,0,5
55,181,1,0.742269516,4,0,5
55,182,1,0.942752838,5,1,5
55,183,1,0.715528011,2,0,5
55,184,1,1.334207058,2,5,5
55,185,1,1.305715561,5,6,5
55,186,1,1.265800476,3,2,5
55,187,1,1.966687202,2,5,5
55,188,1,1.113941193,6,5,5
55,189,1,1.276714563,5,0,5
55,190,1,1.478239536,4,0,5
55,191,1,1.072738647,3,5,5
55,192,1,0.63775754,2,0,5
55,193,1,0.590156078,2,0,5
55,194,1,1.402643681,4,3,5
55,195,1,1.196559906,4,5,5
55,196,1,1.061079979,1,5,5
55,197,1,1.05431819,5,0,5
55,198,1,1.379839659,1,5,5
55,199,1,1.111485243,3,0,5
55,200,1,1.631025076,1,0,5
55,201,1,1.405387402,3,5,5
55,202,1,1.042914867,3,0,5
55,203,1,1.072880983,3,5,5
55,204,1,0.787745714,1,0,5
55,205,1,0.752309084,6,0,5
55,206,1,1.428075552,6,5,5
55,207,1,0.74685955,4,0,5
55,208,1,0.650385618,6,0,5
55,209,1,1.099080563,2,0,5
55,210,1,1.364305735,3,5,5
55,211,1,1.05816865,1,5,5
55,212,1,0.761982441,4,0,5
55,213,1,0.891799688,5,0,5
55,214,1,0.84329319,6,0,5
55,215,1,0.729139328,4,0,5
55,216,1,1.185432434,1,0,5
55,217,1,1.106906414,5,3,5
55,218,1,1.166753292,5,4,5
55,219,1,0.867747545,1,5,5
55,220,1,1.326751709,4,5,5
55,221,1,1.434457779,1,5,5
55,222,1,0.919444799,6,1,5
55,223,1,0.901039362,5,0,5
55,224,1,0.734407902,2,5,5
55,225,1,1.411682606,2,0,5
55,226,1,0.692318201,5,0,5
55,227,1,1.475251436,2,6,5
55,228,1,1.347769022,5,2,5
55,229,1,1.257622719,6,5,5
55,230,1,0.870818138,3,0,5
55,231,1,1.166868925,6,5,5
55,232,1,1.366288185,4,5,5
55,233,1,1.018520594,1,0,5
55,234,1,0.800650597,2,5,5
55,235,1,0.623271704,6,0,5
55,236,1,0.719928503,3,0,5
55,237,1,1.007514477,1,0,5
55,238,1,0.813491106,6,0,5
55,239,1,0.744822979,3,0,5
55,240,1,0.904865742,4,5,5
55,241,1,0.713820219,1,5,5
55,242,1,0.7222929,4,0,5
55,243,1,1.41467905,5,6,5
55,244,1,0.821481943,3,0,5
55,245,1,0.744734049,4,5,5
55,246,1,0.900765657,1,0,5
55,247,1,0.818488598,4,5,5
55,248,1,0.644776583,3,5,5
55,249,1,0.939569473,6,5,5
55,250,1,0.712489605,3,0,5
55,251,1,0.984419584,4,5,5
55,252,1,1.356475592,2,0,5
55,253,1,0.879738569,6,0,5
55,254,1,0.854820251,3,5,5
55,255,1,0.918050528,2,5,5
55,256,1,0.849612713,4,0,5
55,257,1,1.27448678,6,5,5
55,258,1,1.151178837,6,1,5
55,259,1,1.004691839,3,0,5
55,260,1,1.017986059,6,5,5
55,261,1,1.166335106,5,4,5
55,262,1,0.973160505,2,5,5
55,263,1,1.210954905,5,0,5
55,264,1,0.88778758,5,2,5
55,265,1,0.842547894,1,5,5
55,266,1,0.896064758,3,0,5
55,267,0,0.708660603,2,5,5
55,268,1,0.71578455,2,6,5
55,269,1,0.756792545,4,0,5
55,270,1,0.853057384,6,0,5
55,271,1,0.821297646,2,0,5
55,272,1,0.787022591,3,5,5
55,273,1,1.047595739,1,5,5
55,274,1,0.95549655,2,5,5
55,275,1,0.937247038,1,0,5
55,276,1,1.117928505,1,5,5
55,277,1,0.960056782,2,0,5
55,278,1,1.138796568,4,3,5
55,279,1,0.817621708,5,0,5
55,280,1,1.531611919,5,1,5
55,281,1,0.675267935,2,0,5
55,282,1,0.686183691,4,0,5
55,283,1,1.021837234,3,2,5
55,284,1,1.304261446,6,0,5
55,285,1,0.757552624,5,0,5
55,286,1,1.205697536,4,5,5
55,287,1,0.944602728,2,0,5
55,288,1,1.084157705,3,0,5
55,289,1,0.823842525,1,0,5
55,290,1,0.775603533,4,0,5
55,291,1,0.653836489,1,0,5
55,292,1,0.75447917,3,5,5
55,293,1,0.93147254,5,0,5
55,294,1,0.605565786,1,0,5
55,295,1,0.933891296,6,5,5
55,296,1,0.648707628,6,0,5
55,297,1,1.348646164,5,3,5
55,298,1,1.067839861,5,0,5
55,299,1,0.763407707,6,0,5
55,300,1,0.975561619,1,5,5
55,301,1,0.753372908,3,0,5
55,302,1,1.087515831,6,5,5
55,303,1,1.028734446,3,5,5
55,304,1,1.014531851,5,0,5
55,305,1,1.127115726,4,0,5
55,306,1,0.968912601,1,0,5
55,307,1,1.513238907,2,0,5
55,308,1,2.130415678,5,2,5
55,309,1,1.577723026,1,5,5
55,310,1,1.239011288,1,5,5
55,311,1,1.135160923,1,5,5
55,312,1,1.69916296,3,5,5
55,313,1,1.068045139,3,0,5
55,314,1,1.567518473,1,5,5
55,315,1,0.819532871,2,5,5
55,316,1,1.413230658,3,2,5
55,317,1,1.246768713,4,5,5
55,318,1,0.725248575,4,0,5
55,319,1,1.076620817,6,1,5
55,320,1,0.726899862,6,0,5
55,321,1,0.747132301,3,0,5
55,322,1,0.905226231,5,1,5
55,323,1,0.778366804,2,0,5
55,324,1,1.410191774,5,4,5
55,325,1,0.86322546,5,0,5
55,326,1,0.819849014,6,0,5
55,327,1,0.71629405,4,0,5
55,328,1,0.978837013,4,5,5
55,329,1,1.1751616,4,5,5
55,330,1,1.404270887,5,6,5
55,331,1,1.171797037,2,5,5
55,332,1,0.85407567,2,0,5
55,333,1,1.198765993,5,3,5
55,334,1,1.374926567,4,0,5
55,335,1,1.136180401,2,0,5
55,336,1,0.865781069,2,5,5
55,337,1,0.866852522,3,5,5
55,338,1,0.678177357,2,5,5
55,339,1,0.718224525,2,6,5
55,340,1,1.070537806,5,0,5
55,341,1,0.80184865,5,0,5
55,342,1,1.954381466,6,5,5
55,343,1,1.163448572,6,5,5
55,344,1,1.85947299,1,0,5
55,345,1,1.253076077,1,5,5
55,346,1,0.67105484,6,0,5
55,347,1,0.69190383,6,0,5
55,348,1,0.744389057,1,0,5
55,349,1,0.72847724,1,0,5
55,350,1,0.612086773,6,0,5
55,351,1,1.341291428,6,5,5
55,352,1,1.243000507,4,3,5
55,353,1,1.021713734,3,5,5
55,354,1,0.673315525,5,0,5
55,355,1,0.994189024,4,5,5
55,356,1,0.824442387,3,0,5
55,357,1,0.673462629,3,0,5
55,358,1,1.798656464,4,0,5
55,359,1,0.90732193,2,0,5
55,360,1,1.702232361,1,0,5
76,1,1,2.385264158,3,1,3
76,2,1,1.561202049,5,0,3
76,3,1,0.810995102,5,3,3
76,4,1,1.152858734,4,0,3
76,5,1,1.662974596,3,2,3
76,6,1,1.78708005,4,1,3
76,7,1,1.473265648,3,6,3
76,8,1,1.730686665,5,0,3
76,9,1,1.682673693,3,5,3
76,10,1,1.564060926,6,0,3
76,11,1,1.576852083,3,0,3
76,12,1,1.849727154,2,3,3
76,13,1,2.301200628,3,0,3
76,14,1,2.604938984,4,0,3
76,15,1,2.186455488,1,3,3
76,16,1,1.670422316,4,3,3
76,17,1,2.658213854,3,4,3
76,18,1,1.864084721,2,3,3
76,19,1,1.923199177,1,0,3
76,20,1,2.232920885,6,2,3
76,21,1,1.619449615,1,0,3
76,22,1,1.196365595,5,0,3
76,23,0,0.981332779,3,0,3
76,24,1,4.300505877,2,3,3
76,25,1,2.478113651,1,3,3
76,26,1,2.371888876,3,0,3
76,27,0,3.195473909,4,3,3
76,28,1,1.695689917,2,0,3
76,29,1,1.665616751,6,0,3
76,30,1,1.90978241,6,0,3
76,31,1,2.765658855,5,6,3
76,32,1,1.430844069,6,3,3
76,33,1,1.541993618,5,3,3
76,34,0,2.309257984,2,3,3
76,35,1,3.488215446,4,0,3
76,36,1,2.902274609,5,3,3
76,37,1,2.197546959,1,3,3
76,38,1,1.869713783,6,0,3
76,39,1,1.495245457,4,0,3
76,40,1,1.260523796,6,3,3
76,41,1,1.232408762,6,0,3
76,42,1,1.317481995,1,0,3
76,43,1,1.074195623,2,0,3
76,44,1,2.124415636,1,3,3
76,45,1,1.023766994,2,0,3
76,46,1,2.405341625,6,3,3
76,47,1,2.807552814,4,3,3
76,48,1,1.848873615,1,0,3
76,49,1,2.000464201,6,3,3
76,50,1,2.503189325,4,0,3
76,51,1,2.28048563,1,5,3
76,52,1,1.737656593,5,0,3
76,53,1,0.912377834,2,0,3
76,54,1,1.023998499,3,0,3
76,55,1,1.03561759,5,0,3
76,56,1,1.609933853,5,3,3
76,57,0,0.902415991,4,3,3
76,58,1,1.184533834,2,4,3
76,59,1,1.927283287,1,0,3
76,60,1,1.814134598,2,0,3
76,61,1,1.662400961,2,0,3
76,62,0,2.490724802,5,3,3
76,63,1,2.067722797,3,0,3
76,64,1,0.979334354,1,3,3
76,65,1,1.234619856,4,0,3
76,66,0,1.682179451,3,0,3
76,67,1,1.900171041,6,0,3
76,68,1,1.82545042,6,0,3
76,69,1,1.422735214,3,0,3
76,70,1,2.126322269,4,0,3
76,71,1,1.755153418,2,0,3
76,72,1,1.083250761,4,0,3
76,73,1,2.307584763,4,3,3
76,74,1,1.005920649,2,3,3
76,75,1,2.778008699,2,3,3
76,76,1,1.890330553,1,3,3
76,77,1,1.361104727,5,3,3
76,78,1,1.102009058,1,0,3
76,79,1,1.642169952,5,0,3
76,80,1,1.491196871,5,3,3
76,81,1,1.116387367,6,0,3
76,82,0,2.136251926,6,2,3
76,83,1,2.427485704,2,0,3
76,84,1,2.201370478,5,0,3
76,85,1,1.312159777,2,0,3
76,86,1,1.483130932,3,6,3
76,87,1,1.966267109,6,0,3
76,88,1,1.283239603,3,0,3
76,89,1,1.499205589,1,0,3
76,90,1,3.106871128,4,3,3
76,91,1,2.136569738,4,1,3
76,92,1,1.296984196,5,0,3
76,93,1,1.150743961,3,1,3
76,94,1,1.179676533,6,3,3
76,95,1,1.300121307,2,0,3
76,96,1,1.343667269,1,3,3
76,97,1,1.584003687,5,3,3
76,98,1,1.285223484,4,0,3
76,99,1,0.854078293,6,0,3
76,100,0,0.946099281,3,4,3
76,101,1,1.736173391,5,0,3
76,102,1,1.407358646,1,5,3
76,103,1,1.365189791,4,3,3
76,104,1,2.066558838,6,3,3
76,105,1,3.075299501,1,0,3
76,106,1,1.165718555,5,6,3
76,107,1,0.920977354,6,3,3
76,108,1,1.147755623,3,2,3
76,109,1,1.160794973,4,0,3
76,110,1,1.228647709,2,4,3
76,111,1,1.476069689,3,0,3
76,112,1,2.365267515,2,3,3
76,113,0,1.659053802,2,3,3
76,114,1,2.114449501,5,0,3
76,115,1,1.538905144,6,3,3
76,116,1,4.574189901,3,5,3
76,117,1,3.399339914,4,3,3
76,118,1,1.243712664,1,0,3
76,119,1,2.100617409,1,0,3
76,120,1,2.805693388,1,3,3
76,121,1,1.187323332,1,5,3
76,122,1,1.61455369,6,3,3
76,123,1,1.176295042,6,0,3
76,124,1,1.363619804,3,6,3
76,125,1,1.90886116,3,1,3
76,126,1,2.350038528,1,3,3
76,127,1,1.104189873,6,2,3
76,128,1,1.046964407,3,0,3
76,129,1,1.03495574,6,0,3
76,130,1,2.063413858,2,0,3
76,131,1,1.998930693,3,2,3
76,132,1,2.767905712,5,6,3
76,133,1,1.841853619,4,1,3
76,134,1,2.000216961,3,4,3
76,135,1,1.644604445,2,3,3
76,136,1,0.932706833,1,3,3
76,137,1,0.947092533,6,0,3
76,138,1,0.919640541,4,0,3
76,139,1,2.210484028,1,0,3
76,140,1,0.913162708,5,0,3
76,141,1,0.979278088,1,3,3
76,142,1,0.998754025,4,3,3
76,143,1,1.157109022,3,5,3
76,144,1,1.125285625,1,0,3
76,145,1,2.379962683,2,0,3
76,146,1,1.436134577,4,3,3
76,147,1,0.883256912,1,0,3
76,148,1,0.825482607,4,0,3
76,149,1,0.81340766,2,0,3
76,150,1,1.444378853,3,0,3
76,151,1,1.047008753,5,0,3
76,152,1,1.852849722,5,0,3
76,153,1,1.015792608,2,4,3
76,154,1,1.879958153,5,3,3
76,155,1,1.897893667,2,3,3
76,156,1,2.224989891,5,0,3
76,157,1,1.483802557,5,3,3
76,158,1,1.440193653,6,0,3
76,159,1,2.232578039,1,3,3
76,160,1,1.578744173,2,3,3
76,161,1,1.180918694,1,0,3
76,162,1,1.075679064,6,3,3
76,163,1,1.18106246,5,3,3
76,164,1,2.621415854,5,3,3
76,165,1,1.093237638,4,0,3
76,166,1,1.309642792,5,0,3
76,167,1,1.351820707,6,3,3
76,168,1,1.754344702,4,3,3
76,169,1,2.405600548,2,0,3
76,170,1,1.96615696,2,3,3
76,171,1,1.680462837,1,0,3
76,172,1,0.994794846,6,0,3
76,173,1,1.597383976,6,3,3
76,174,0,0.654157639,3,0,3
76,175,1,1.576414824,4,0,3
76,176,1,0.858718634,3,0,3
76,177,1,1.187409639,3,0,3
76,178,1,1.422527313,4,3,3
76,179,1,1.190127611,4,0,3
76,180,1,1.003072262,2,0,3
76,181,0,1.813732862,2,0,3
76,182,1,2.025588512,4,0,3
76,183,1,0.869717598,3,0,3
76,184,1,1.613580704,6,3,3
76,185,1,0.985645056,6,2,3
76,186,1,1.030106783,2,0,3
76,187,1,1.185745716,4,3,3
76,188,1,0.749998093,5,0,3
76,189,1,1.363534212,4,0,3
76,190,1,0.995338678,2,3,3
76,191,1,1.109332561,5,3,3
76,192,1,1.353051901,4,3,3
76,193,1,0.810394764,1,3,3
76,194,1,1.142751694,2,3,3
76,195,1,0.735127926,1,0,3
76,196,1,2.174394846,5,0,3
76,197,1,1.59324789,5,0,3
76,198,1,1.091875076,2,0,3
76,199,1,1.071913958,6,0,3
76,200,1,1.10695219,5,3,3
76,201,1,1.015467405,1,3,3
76,202,1,1.223065853,4,1,3
76,203,1,1.37566328,3,6,3
76,204,1,0.915446997,1,0,3
76,205,1,1.122245789,2,0,3
76,206,1,0.723194122,5,0,3
76,207,1,0.6864326,4,0,3
76,208,1,1.513152599,2,4,3
76,209,1,0.880157709,5,3,3
76,210,1,0.565268517,1,0,3
76,211,1,1.222458601,3,4,3
76,212,1,0.797130108,6,0,3
76,213,1,1.081949711,4,3,3
76,214,1,0.87610817,1,0,3
76,215,1,2.100659847,4,3,3
76,216,1,1.009129524,1,5,3
76,217,1,0.699234486,5,3,3
76,218,1,0.823340654,4,0,3
76,219,1,0.6322999,4,0,3
76,220,1,1.242650747,3,0,3
76,221,1,1.981315851,2,3,3
76,222,1,1.391847849,3,0,3
76,223,1,1.019545555,1,3,3
76,224,1,1.538500547,6,3,3
76,225,1,2.191718578,6,0,3
76,226,1,0.689745665,6,0,3
76,227,1,1.184741974,2,0,3
76,228,1,1.290623188,3,0,3
76,229,1,2.258025885,3,2,3
76,230,1,1.347088099,3,0,3
76,231,1,1.251703739,5,6,3
76,232,1,3.107484818,2,3,3
76,233,1,1.481385469,3,1,3
76,234,1,2.35107851,1,3,3
76,235,1,1.712137222,1,0,3
76,236,1,1.813257694,6,0,3
76,237,1,0.999653339,3,5,3
76,238,1,0.982885361,6,3,3
76,239,1,1.117700577,6,3,3
76,240,1,1.230874538,5,0,3
76,241,1,1.372849941,6,3,3
76,242,1,0.914078474,6,3,3
76,243,1,0.674412727,6,3,3
76,244,1,1.231669664,2,3,3
76,245,1,1.593071461,5,3,3
76,246,1,1.41722846,3,0,3
76,247,1,2.242990732,4,0,3
76,248,1,1.183137655,3,0,3
76,249,1,1.9110322,3,0,3
76,250,1,1.399215698,1,3,3
76,251,1,1.624157667,2,3,3
76,252,1,1.718468666,1,0,3
76,253,1,1.143980026,2,4,3
76,254,1,1.395288706,1,0,3
76,255,1,0.963037252,1,3,3
76,256,1,2.008196592,4,3,3
76,257,1,1.503014565,3,4,3
76,258,1,1.327086926,3,0,3
76,259,1,1.112052917,3,1,3
76,260,1,1.892149925,4,0,3
76,261,1,1.360582829,2,0,3
76,262,1,1.15536499,6,0,3
76,263,1,1.661504984,6,0,3
76,264,1,1.224686623,4,0,3
76,265,1,2.316713333,2,0,3
76,266,1,1.12823391,5,0,3
76,267,1,1.124040127,5,0,3
76,268,1,0.601774454,3,0,3
76,269,1,0.859009504,5,0,3
76,270,1,0.786640167,5,3,3
76,271,1,0.800372601,5,3,3
76,272,1,1.07135582,2,3,3
76,273,1,1.304130077,5,0,3
76,274,1,0.87711668,1,3,3
76,275,1,0.866413355,6,2,3
76,276,1,1.308177948,2,0,3
76,277,1,1.894850492,5,0,3
76,278,1,0.594643831,3,6,3
76,279,1,1.387223005,2,3,3
76,280,1,0.922143698,4,1,3
76,281,1,1.817017794,1,0,3
76,282,1,2.30880785,2,0,3
76,283,1,1.281520605,5,3,3
76,284,1,1.328045845,4,0,3
76,285,1,1.119804859,1,0,3
76,286,1,1.13247776,5,6,3
76,287,1,1.117681742,6,3,3
76,288,1,0.646597862,6,0,3
76,289,1,1.377719641,4,0,3
76,290,1,1.188450575,4,3,3
76,291,1,1.119227886,3,5,3
76,292,1,1.39757061,4,3,3
76,293,1,1.954658747,1,3,3
76,294,1,1.106595039,6,0,3
76,295,1,1.190954447,3,2,3
76,296,1,0.774835825,1,0,3
76,297,1,1.034255505,6,0,3
76,298,1,1.465397835,2,0,3
76,299,1,0.706285,4,3,3
76,300,1,1.561366558,1,5,3
76,301,1,1.154875755,2,0,3
76,302,1,1.190902948,4,0,3
76,303,1,1.261320591,4,0,3
76,304,1,0.882366657,6,0,3
76,305,1,0.770738125,5,3,3
76,306,1,1.499150038,5,6,3
76,307,1,1.06760478,1,0,3
76,308,1,1.144327641,2,0,3
76,309,1,0.932408571,6,3,3
76,310,1,0.721817732,6,3,3
76,311,1,0.737203598,5,0,3
76,312,1,0.83088398,4,1,3
76,313,1,0.594243765,5,0,3
76,314,1,0.616423607,3,0,3
76,315,1,1.251551151,1,3,3
76,316,1,0.576073885,6,3,3
76,317,1,0.990786552,6,0,3
76,318,1,0.809642076,2,3,3
76,319,1,1.522773504,5,0,3
76,320,1,1.335858583,1,3,3
76,321,1,1.422045708,1,3,3
76,322,1,1.169504881,5,3,3
76,323,1,2.404894352,2,0,3
76,324,1,1.027869701,6,0,3
76,325,1,1.253088713,2,4,3
76,326,1,1.47788167,2,3,3
76,327,1,1.305524588,1,3,3
76,328,1,0.991279602,6,0,3
76,329,1,1.52315402,1,5,3
76,330,1,1.178816557,1,0,3
76,331,1,0.990322113,2,0,3
76,332,1,1.324878454,3,6,3
76,333,1,1.071127892,2,0,3
76,334,1,1.432978868,6,2,3
76,335,1,1.494689941,3,1,3
76,336,1,0.71451807,5,3,3
76,337,1,1.146055698,5,0,3
76,338,1,1.345805645,3,0,3
76,339,1,1.042631149,3,2,3
76,340,1,0.809617758,3,0,3
76,341,1,1.503188848,3,5,3
76,342,1,1.142382383,4,3,3
76,343,1,1.165818691,3,4,3
76,344,1,0.822518587,2,3,3
76,345,1,0.963671923,6,0,3
76,346,0,0.736182451,5,0,3
76,347,1,0.953994989,1,0,3
76,348,1,1.083974838,4,0,3
76,349,1,1.091337681,3,0,3
76,350,1,1.858139992,4,3,3
76,351,1,2.346419573,4,3,3
76,352,1,0.903830767,3,0,3
76,353,1,0.746154785,4,0,3
76,354,1,0.640741587,1,0,3
76,355,1,0.988367796,2,3,3
76,356,1,1.318176746,4,0,3
76,357,1,0.759282827,4,3,3
76,358,1,0.666324854,6,3,3
76,359,1,0.671706676,5,3,3
76,360,1,0.76267767,1,0,3
