id,trial_num,acc,rt,target_loc,dist_loc,hp_loc
14,1,1,0.784391165,3,5,1
14,2,1,0.908449173,3,0,1
14,3,1,0.916420937,2,1,1
14,4,1,1.057694674,4,0,1
14,5,1,1.030939817,4,3,1
14,6,1,0.964851379,2,1,1
14,7,1,0.855842352,5,0,1
14,8,1,0.931971788,1,2,1
14,9,1,0.901753426,1,0,1
14,10,1,1.034682035,5,1,1
14,11,1,0.913966894,5,6,1
14,12,1,0.96999073,4,0,1
14,13,1,1.076747656,3,1,1
14,14,1,1.001639128,6,0,1
14,15,1,0.714015961,4,0,1
14,16,1,0.826967001,4,0,1
14,17,1,1.00676465,3,1,1
14,18,1,0.762751818,5,0,1
14,19,1,0.995752335,3,0,1
14,20,1,1.068670988,1,5,1
14,21,1,0.929909229,1,0,1
14,22,1,1.109528065,4,1,1
14,23,1,1.08583498,2,1,1
14,24,1,1.115797997,6,1,1
14,25,1,1.677565098,6,1,1
14,26,1,1.149263859,5,1,1
14,27,1,1.204550028,5,0,1
14,28,1,1.179077864,2,0,1
14,29,1,1.406026602,1,4,1
14,30,1,1.247542858,1,6,1
14,31,1,1.115989923,6,0,1
14,32,1,1.072362423,2,4,1
14,33,1,0.98398447,6,0,1
14,34,1,1.599158764,6,2,1
14,35,1,1.132332087,4,1,1
14,36,1,1.152205706,1,3,1
14,37,1,1.53573966,4,1,1
14,38,1,1.05031395,3,0,1
14,39,1,0.908159971,4,0,1
14,40,1,1.054605961,6,1,1
14,41,1,1.122591972,4,1,1
14,42,1,1.044052124,3,1,1
14,43,1,0.871908665,3,1,1
14,44,1,0.940091133,1,0,1
14,45,1,0.866097927,1,0,1
14,46,1,1.192583084,2,0,1
14,47,1,1.162303686,6,0,1
14,48,1,1.068596125,2,0,1
14,49,1,1.189962626,1,0,1
14,50,1,1.024497747,2,1,1
14,51,1,0.801024437,3,0,1
14,52,1,0.786605835,6,1,1
14,53,1,0.875938892,5,1,1
14,54,1,0.885216713,5,0,1
14,55,0,0.799530745,3,0,1
14,56,1,0.913048744,5,0,1
14,57,1,0.8588624,6,0,1
14,58,1,1.096760035,5,1,1
14,59,1,0.894842863,2,0,1
14,60,1,0.877175331,2,0,1
14,61,0,1.535370111,1,6,1
14,62,1,1.34078908,4,1,1
14,63,1,0.885415077,4,1,1
14,64,1,0.809818983,4,1,1
14,65,1,0.936137676,1,0,1
14,66,1,0.915787697,6,0,1
14,67,1,0.837310791,2,1,1
14,68,1,1.287379742,1,0,1
14,69,1,0.771793127,2,0,1
14,70,1,0.871845245,6,0,1
14,71,1,0.747816801,3,0,1
14,72,1,0.755817652,1,0,1
14,73,1,0.743513584,5,1,1
14,74,1,0.916242599,2,4,1
14,75,1,0.762697935,4,0,1
14,76,1,0.658390045,6,0,1
14,77,1,1.098574638,1,0,1
14,78,1,0.814265013,3,1,1
14,79,1,0.785627365,6,1,1
14,80,1,1.580677032,6,1,1
14,81,1,1.130344629,4,3,1
14,82,1,1.365289927,6,1,1
14,83,1,1.173923016,4,0,1
14,84,1,1.103364944,6,2,1
14,85,1,0.946171045,2,1,1
14,86,1,0.889266729,5,1,1
14,87,1,0.922162771,3,5,1
14,88,1,0.988642931,5,6,1
14,89,1,0.808050394,4,0,1
14,90,1,0.759164095,3,0,1
14,91,1,1.007066965,1,5,1
14,92,1,0.732983112,2,0,1
14,93,1,0.671937943,1,0,1
14,94,1,0.687406063,5,0,1
14,95,1,0.816746235,6,1,1
14,96,1,1.15832901,5,1,1
14,97,1,0.899352551,3,1,1
14,98,1,0.697285652,6,0,1
14,99,1,0.834448099,4,0,1
14,100,1,0.713841677,3,0,1
14,101,1,0.641019106,6,0,1
14,102,1,0.693539381,5,0,1
14,103,0,0.495823145,1,3,1
14,104,1,0.931226969,4,0,1
14,105,1,1.416338921,1,2,1
14,106,1,0.781909943,5,0,1
14,107,1,0.731220961,2,1,1
14,108,1,0.715442181,2,0,1
14,109,1,0.863581181,3,1,1
14,110,1,0.742099047,2,1,1
14,111,1,0.683677912,3,0,1
14,112,1,0.710386276,5,0,1
14,113,1,0.756722689,5,1,1
14,114,1,0.606170654,3,0,1
14,115,1,0.895343304,4,1,1
14,116,1,0.929678917,1,4,1
14,117,1,0.688847065,2,0,1
14,118,1,0.616876125,5,0,1
14,119,1,0.662837029,2,0,1
14,120,1,0.725168943,3,1,1
14,121,1,1.131276846,1,3,1
14,122,1,1.288040638,2,1,1
14,123,1,0.730540037,3,0,1
14,124,1,0.639843225,3,0,1
14,125,1,0.819372177,1,0,1
14,126,1,0.855357647,6,1,1
14,127,1,0.657569885,1,0,1
14,128,1,1.234468937,4,1,1
14,129,1,0.698218107,5,1,1
14,130,1,0.715814352,3,0,1
14,131,1,0.606463432,5,0,1
14,132,1,0.8692801,3,1,1
14,133,1,0.679714918,2,0,1
14,134,1,0.964687347,3,5,1
14,135,1,0.60029006,2,1,1
14,136,1,0.63282299,4,0,1
14,137,1,0.516499996,2,4,1
14,138,1,0.757102966,6,1,1
14,139,1,0.839758873,1,0,1
14,140,1,1.32255125,1,5,1
14,141,1,0.748777151,3,1,1
14,142,1,0.876328468,1,2,1
14,143,1,0.996108294,6,2,1
14,144,1,0.848889828,4,1,1
14,145,1,0.958390713,1,6,1
14,146,1,0.634036064,3,1,1
14,147,1,0.693100214,5,0,1
14,148,1,0.962949991,4,1,1
14,149,1,0.680305243,1,0,1
14,150,1,0.942823887,4,0,1
14,151,1,0.890601397,2,1,1
14,152,1,0.945268631,5,1,1
14,153,1,0.828093052,4,3,1
14,154,1,0.852463722,2,0,1
14,155,1,0.59998107,5,0,1
14,156,1,0.612139463,4,1,1
14,157,1,1.278825045,6,0,1
14,158,1,0.864877224,6,0,1
14,159,1,0.966126919,5,6,1
14,160,1,0.836969137,4,0,1
14,161,1,0.768272638,3,1,1
14,162,1,0.811986208,1,4,1
14,163,1,0.648007631,3,0,1
14,164,1,0.660683155,2,0,1
14,165,1,1.001861811,6,0,1
14,166,1,0.54386425,2,0,1
14,167,1,0.788643837,5,0,1
14,168,1,0.705906391,5,1,1
14,169,1,0.508430958,5,1,1
14,170,1,0.924415112,5,0,1
14,171,1,0.720223904,2,0,1
14,172,1,0.771138668,6,1,1
14,173,1,0.985692739,6,1,1
14,174,1,1.004974127,1,0,1
14,175,1,0.727523565,3,0,1
14,176,1,0.601649046,6,0,1
14,177,1,0.784302711,2,1,1
14,178,1,0.688395739,6,0,1
14,179,1,0.9978652,4,0,1
14,180,1,1.035865068,4,0,1
14,181,1,0.743209839,3,1,1
14,182,1,0.983092785,3,1,1
14,183,1,0.867014647,4,3,1
14,184,1,0.617822647,5,1,1
14,185,1,0.808984756,2,4,1
14,186,1,1.185603142,1,0,1
14,187,1,0.584643841,2,0,1
14,188,1,0.659145355,3,1,1
14,189,1,0.594848871,4,0,1
14,190,1,0.834354639,2,1,1
14,191,1,0.743311882,4,0,1
14,192,1,0.921517134,1,2,1
14,193,1,1.09821558,1,6,1
14,194,1,0.605699539,4,0,1
14,195,1,1.078660011,6,1,1
14,196,1,1.403935432,5,0,1
14,197,1,0.646143198,3,0,1
14,198,1,0.663744926,5,0,1
14,199,1,0.849599123,2,0,1
14,200,1,1.047530413,6,1,1
14,201,1,0.659806967,2,0,1
14,202,1,0.657177448,6,0,1
14,203,1,0.793237925,1,5,1
14,204,1,0.697217464,6,0,1
14,205,1,0.60476923,2,0,1
14,206,1,1.05623889,6,2,1
14,207,1,0.695705891,4,1,1
14,208,1,0.716078281,5,1,1
14,209,1,0.832126379,1,4,1
14,210,1,0.646315098,3,0,1
14,211,1,0.840755463,4,1,1
14,212,1,0.563129187,3,5,1
14,213,1,0.651074409,2,1,1
14,214,1,0.853927135,1,0,1
14,215,1,0.604349613,6,0,1
14,216,1,0.857243061,6,0,1
14,217,1,0.672856092,1,0,1
14,218,1,0.57346487,3,0,1
14,219,1,0.744712353,5,0,1
14,220,1,0.937332869,4,1,1
14,221,1,0.836756229,3,1,1
14,222,1,0.834081888,4,1,1
14,223,1,1.284285784,1,3,1
14,224,1,0.78850317,5,1,1
14,225,1,0.717993259,5,0,1
14,226,1,1.099649191,2,1,1
14,227,1,0.702419996,3,0,1
14,228,1,0.745028496,6,1,1
14,229,1,0.577516794,5,0,1
14,230,1,0.84171319,6,0,1
14,231,1,0.846385479,5,1,1
14,232,1,0.8537817,2,1,1
14,233,1,0.836470842,4,0,1
14,234,1,0.806289434,2,0,1
14,235,1,1.488089323,5,6,1
14,236,1,0.627330303,1,0,1
14,237,1,0.6214118,1,0,1
14,238,1,1.047902107,6,1,1
14,239,1,0.697617769,3,0,1
14,240,1,0.693349838,4,0,1
14,241,1,0.949694395,6,1,1
14,242,1,0.819415808,3,1,1
14,243,1,0.598266125,6,0,1
14,244,1,0.750982761,4,0,1
14,245,1,0.698209763,2,0,1
14,246,1,1.276330709,2,1,1
14,247,1,0.707640171,1,0,1
14,248,1,0.732818127,3,0,1
14,249,1,0.86732316,5,1,1
14,250,1,0.898531914,1,2,1
14,251,1,0.675709963,5,0,1
14,252,1,0.541623831,2,0,1
14,253,1,0.969456673,6,0,1
14,254,1,0.640108585,5,1,1
14,255,1,0.704208374,4,1,1
14,256,1,0.681641102,3,0,1
14,257,1,0.515497446,3,0,1
14,258,1,0.756422043,5,0,1
14,259,1,0.762463093,2,1,1
14,260,1,0.745312214,1,6,1
14,261,1,0.763204336,6,1,1
14,262,1,0.59341383,4,0,1
14,263,1,0.716458797,5,1,1
14,264,1,0.521960735,2,1,1
14,265,1,0.522188663,2,0,1
14,266,1,0.547829628,3,0,1
14,267,1,0.755295992,5,6,1
14,268,1,1.02867794,6,1,1
14,269,1,0.73303628,1,4,1
14,270,1,0.661807775,5,0,1
14,271,1,0.717484713,4,1,1
14,272,1,0.763353825,4,1,1
14,273,1,0.89662981,2,4,1
14,274,1,0.668476343,4,1,1
14,275,1,0.667541504,3,1,1
14,276,1,0.613277197,3,5,1
14,277,1,0.69521904,4,3,1
14,278,1,0.798415899,2,0,1
14,279,1,0.735417128,1,0,1
14,280,1,0.830161095,5,1,1
14,281,1,0.713944912,3,1,1
14,282,1,0.754948854,6,2,1
14,283,1,1.032911777,1,0,1
14,284,1,1.102392197,4,0,1
14,285,1,0.584578753,3,1,1
14,286,1,0.869086027,1,3,1
14,287,1,0.74810791,5,0,1
14,288,1,0.812221766,6,0,1
14,289,1,0.808415413,4,0,1
14,290,1,0.849612713,1,0,1
14,291,1,0.772040367,2,0,1
14,292,1,0.602720976,4,0,1
14,293,1,0.890647888,6,1,1
14,294,1,1.379154921,5,0,1
14,295,1,0.669530392,1,0,1
14,296,1,0.648576021,2,1,1
14,297,1,0.597595453,6,0,1
14,298,1,0.655190945,3,0,1
14,299,1,0.580798864,6,0,1
14,300,1,0.851814032,1,5,1
14,301,1,0.648172617,1,0,1
14,302,1,0.637214184,3,5,1
14,303,1,0.591559887,1,5,1
14,304,1,0.644049883,1,3,1
14,305,1,0.690850735,3,0,1
14,306,1,0.825306654,6,1,1
14,307,1,0.529533625,3,0,1
14,308,1,0.713185787,3,1,1
14,309,1,0.620988131,4,0,1
14,310,1,0.659996986,2,1,1
14,311,1,0.7171731,5,0,1
14,312,1,1.368983984,5,6,1
14,313,1,0.594933748,6,0,1
14,314,1,0.60193038,2,0,1
14,315,1,0.714719772,4,0,1
14,316,1,0.635382175,4,1,1
14,317,1,0.559549809,1,0,1
14,318,1,0.850797176,3,1,1
14,319,1,0.653088093,3,1,1
14,320,1,0.645698071,5,1,1
14,321,1,0.493163109,5,0,1
14,322,1,0.542175055,3,0,1
14,323,1,0.684616089,1,0,1
14,324,1,0.613558769,5,1,1
14,325,1,0.554005146,5,1,1
14,326,1,1.007066011,4,3,1
14,327,1,0.83795476,3,0,1
14,328,1,0.641825914,1,6,1
14,329,1,0.620705366,3,0,1
14,330,1,0.73986721,2,1,1
14,331,1,0.999867678,1,2,1
14,332,1,0.566866636,6,0,1
14,333,1,0.773180962,6,1,1
14,334,1,0.693696976,4,0,1
14,335,1,0.941281319,2,4,1
14,336,1,0.577903748,2,0,1
14,337,1,0.80951643,6,0,1
14,338,1,0.671170712,4,1,1
14,339,1,0.802201748,5,0,1
14,340,1,0.659139156,6,0,1
14,341,1,0.719750881,2,1,1
14,342,1,1.868906736,6,2,1
14,343,1,0.57781291,4,0,1
14,344,1,0.631507874,2,0,1
14,345,1,0.560563803,4,1,1
14,346,1,0.613327742,2,0,1
14,347,1,0.643942118,6,1,1
14,348,1,0.916870594,1,0,1
14,349,1,0.672365665,5,0,1
14,350,1,0.562968731,2,0,1
14,351,1,0.635942698,4,1,1
14,352,1,0.673062325,5,0,1
14,353,1,0.834323883,5,1,1
14,354,1,0.578653097,6,0,1
14,355,1,0.898264647,1,4,1
14,356,1,0.865709543,3,1,1
14,357,1,0.566502094,2,1,1
14,358,1,0.747713566,1,0,1
14,359,1,0.605168104,4,0,1
14,360,0,0.667564631,6,1,1
15,1,1,1.792299986,3,4,3
15,2,1,1.250175953,6,3,3
15,3,1,0.942684174,3,5,3
15,4,1,0.741849661,6,0,3
15,5,1,0.684206963,2,0,3
15,6,1,0.543115854,2,0,3
15,7,1,0.479161024,5,0,3
15,8,1,0.521200418,1,0,3
15,9,1,0.521796703,4,0,3
15,10,1,0.530724049,3,1,3
15,11,1,1.205644608,4,0,3
15,12,1,0.793169022,2,3,3
15,13,1,1.147444963,4,3,3
15,14,1,1.015401125,5,0,3
15,15,1,0.621322155,4,0,3
15,16,1,0.940264702,5,3,3
15,17,1,0.854432821,2,0,3
15,18,1,1.167266846,6,0,3
15,19,1,0.628207922,4,0,3
15,20,0,0.932696104,2,3,3
15,21,1,2.033596754,6,0,3
15,22,1,0.883021593,1,5,3
15,23,1,1.193187714,6,0,3
15,24,1,1.916904926,6,3,3
15,25,1,1.418539762,3,0,3
15,26,1,1.175064087,1,3,3
15,27,1,1.296364784,6,3,3
15,28,1,1.209593296,5,3,3
15,29,1,1.00074172,1,0,3
15,30,1,0.935441732,1,3,3
15,31,1,0.727863789,2,3,3
15,32,1,1.094177961,4,3,3
15,33,1,0.847100735,2,0,3
15,34,1,0.804682255,3,0,3
15,35,1,0.937752724,1,0,3
15,36,1,0.856880665,1,3,3
15,37,1,1.554023504,6,3,3
15,38,1,0.891635656,5,0,3
15,39,1,0.834297657,4,0,3
15,40,1,1.103900909,5,0,3
15,41,1,0.701233149,3,0,3
15,42,1,0.923793316,3,2,3
15,43,1,1.83087182,4,3,3
15,44,1,1.000777721,5,3,3
15,45,1,1.158635378,4,1,3
15,46,1,0.829428673,4,3,3
15,47,1,0.763558626,1,0,3
15,48,1,0.764532804,5,3,3
15,49,1,0.92256403,2,4,3
15,50,1,1.077264786,3,6,3
15,51,1,0.863461018,5,0,3
15,52,1,0.604298353,3,0,3
15,53,1,0.841902733,3,0,3
15,54,1,0.954501629,6,2,3
15,55,1,0.847476006,2,3,3
15,56,1,0.674736977,6,0,3
15,57,1,0.678852081,1,3,3
15,58,1,0.699489355,2,0,3
15,59,1,0.596642733,5,6,3
15,60,1,1.735091686,1,0,3
15,61,1,1.120329857,1,0,3
15,62,1,1.336930037,2,3,3
15,63,1,1.071374893,3,6,3
15,64,1,0.9223423,5,0,3
15,65,1,0.626361132,6,0,3
15,66,1,1.012657881,2,4,3
15,67,1,1.499878883,5,3,3
15,68,1,0.567106247,6,0,3
15,69,1,0.84321785,6,2,3
15,70,1,1.0311234,2,0,3
15,71,1,1.177699327,4,0,3
15,72,1,0.711822033,3,0,3
15,73,1,1.027910233,6,3,3
15,74,1,0.992432594,1,3,3
15,75,1,0.706901312,4,0,3
15,76,1,0.70938015,2,0,3
15,77,1,1.030533075,2,3,3
15,78,1,0.779918909,4,0,3
15,79,1,1.169506788,4,1,3
15,80,1,1.060888052,4,0,3
15,81,1,0.651621819,6,0,3
15,82,1,1.149815083,2,3,3
15,83,1,1.017774582,3,1,3
15,84,1,0.75348568,1,0,3
15,85,1,1.101295948,2,0,3
15,86,1,0.768975496,6,0,3
15,87,1,0.854846001,4,3,3
15,88,1,1.082487583,3,4,3
15,89,1,0.636789799,1,0,3
15,90,1,1.044672251,4,3,3
15,91,1,0.613685846,6,3,3
15,92,1,0.73444891,5,0,3
15,93,1,0.708679914,6,3,3
15,94,1,0.68426156,2,3,3
15,95,1,0.607900858,1,0,3
15,96,1,0.50033474,1,3,3
15,97,1,0.988088846,3,0,3
15,98,1,0.621021032,2,0,3
15,99,1,0.691623688,5,0,3
15,100,1,0.600813389,5,0,3
15,101,1,1.013879061,5,0,3
15,102,1,0.934854031,4,3,3
15,103,1,0.964717865,3,0,3
15,104,1,0.647273779,5,6,3
15,105,1,0.927841425,1,3,3
15,106,1,1.127416134,1,5,3
15,107,1,1.053510904,5,3,3
15,108,1,0.954529524,1,3,3
15,109,1,0.84213376,1,0,3
15,110,1,1.006893158,6,3,3
15,111,1,0.767424822,3,0,3
15,112,1,0.728239059,5,3,3
15,113,1,0.943042994,3,5,3
15,114,1,0.967180729,2,0,3
15,115,1,1.273712635,4,3,3
15,116,1,0.77799511,4,0,3
15,117,1,0.878898144,5,3,3
15,118,1,1.16862011,3,0,3
15,119,1,0.734279871,6,0,3
15,120,1,1.109105825,3,2,3
15,121,1,0.92016387,4,0,3
15,122,1,0.606053829,1,0,3
15,123,1,0.723312616,5,0,3
15,124,1,0.844653845,2,0,3
15,125,1,0.56686902,2,0,3
15,126,1,0.712979317,5,3,3
15,127,1,0.665234089,6,3,3
15,128,1,1.014431477,3,2,3
15,129,1,0.610102654,3,0,3
15,130,1,0.792659044,4,3,3
15,131,1,0.604902744,4,0,3
15,132,1,0.642683983,1,0,3
15,133,1,0.615104914,6,0,3
15,134,1,0.896268845,1,3,3
15,135,1,0.535167933,4,0,3
15,136,1,1.037838221,2,0,3
15,137,1,0.922331095,6,2,3
15,138,0,1.90936017,2,3,3
15,139,1,3.57873559,2,3,3
15,140,1,1.138758898,3,0,3
15,141,1,0.773167849,1,5,3
15,142,1,1.394831419,5,6,3
15,143,1,0.736869097,1,0,3
15,144,1,1.227078676,3,1,3
15,145,1,0.836096048,4,1,3
15,146,1,1.035586834,3,0,3
15,147,1,0.681724548,5,0,3
15,148,1,0.793859005,1,3,3
15,149,1,0.981486082,6,0,3
15,150,1,0.760690689,5,0,3
15,151,1,0.993497133,2,3,3
15,152,1,0.96642065,2,0,3
15,153,1,0.767487764,6,0,3
15,154,1,1.188853025,2,3,3
15,155,1,0.567564011,5,0,3
15,156,1,0.823530197,5,3,3
15,157,1,0.677807093,1,3,3
15,158,1,0.573316813,6,3,3
15,159,1,0.552444458,5,0,3
15,160,1,0.639741659,6,3,3
15,161,1,0.783869028,3,0,3
15,162,1,1.213454723,3,6,3
15,163,1,0.964329243,3,0,3
15,164,1,0.730079651,4,0,3
15,165,1,1.662485838,2,4,3
15,166,1,0.711243868,6,0,3
15,167,1,1.264327765,6,0,3
15,168,1,0.645149946,1,0,3
15,169,1,1.27315855,3,4,3
15,170,1,1.050106525,4,3,3
15,171,1,0.711915255,5,3,3
15,172,1,0.667475462,4,0,3
15,173,1,0.943525314,3,5,3
15,174,1,1.051512003,4,3,3
15,175,1,0.724217176,2,0,3
15,176,1,0.740164042,6,3,3
15,177,1,0.700197935,5,3,3
15,178,1,0.590267658,1,3,3
15,179,1,0.58956337,1,0,3
15,180,1,0.723874092,4,3,3
15,181,1,0.604023933,4,3,3
15,182,1,0.776637316,6,2,3
15,183,1,1.032783985,2,3,3
15,184,1,0.622070074,5,0,3
15,185,1,0.646345139,1,0,3
15,186,1,0.911113739,3,0,3
15,187,1,0.671967983,1,0,3
15,188,1,0.707960606,6,3,3
15,189,1,0.768968821,5,0,3
15,190,1,0.674618244,6,0,3
15,191,1,0.758832216,4,1,3
15,192,1,0.661124706,5,3,3
15,193,1,0.927085876,5,3,3
15,194,1,0.720164537,3,0,3
15,195,1,0.882688999,2,0,3
15,196,1,0.806949377,5,3,3
15,197,1,0.954833031,3,1,3
15,198,1,1.137876034,3,4,3
15,199,1,0.790564775,4,3,3
15,200,1,0.849909782,1,3,3
15,201,1,0.802439928,5,0,3
15,202,1,0.91025281,3,2,3
15,203,1,0.766213655,6,3,3
15,204,1,0.722081184,4,0,3
15,205,1,0.923163176,3,0,3
15,206,1,0.608844995,1,0,3
15,207,1,0.559747458,2,0,3
15,208,1,0.7504282,1,0,3
15,209,1,0.69488883,6,0,3
15,210,1,0.792128325,2,3,3
15,211,1,1.069956064,3,6,3
15,212,1,0.745810032,2,0,3
15,213,1,0.693228722,5,3,3
15,214,1,0.622270107,5,0,3
15,215,1,0.671254873,1,3,3
15,216,1,0.677013159,4,0,3
15,217,1,0.851272583,2,0,3
15,218,1,1.119175196,5,6,3
15,219,1,0.6196661,4,0,3
15,220,1,0.745734692,4,3,3
15,221,1,0.642755508,6,0,3
15,222,1,0.598834038,4,0,3
15,223,1,0.589159012,6,3,3
15,224,1,0.531501055,6,0,3
15,225,1,1.271423817,1,5,3
15,226,1,0.657117844,4,0,3
15,227,1,0.67434907,1,0,3
15,228,1,0.610394001,4,3,3
15,229,1,0.650458813,3,0,3
15,230,1,1.013852596,2,3,3
15,231,1,0.634487391,3,0,3
15,232,1,0.7287395,1,3,3
15,233,1,0.77259469,1,3,3
15,234,1,0.973803997,2,3,3
15,235,0,0.662932873,2,0,3
15,236,1,0.839455843,3,5,3
15,237,1,0.643123865,6,0,3
15,238,1,0.57562089,6,3,3
15,239,1,0.786138296,5,0,3
15,240,1,1.090700865,2,4,3
15,241,1,0.649311781,6,0,3
15,242,1,0.939759016,3,2,3
15,243,1,0.761342287,4,1,3
15,244,1,0.54217577,4,0,3
15,245,1,1.296815157,4,0,3
15,246,1,0.799567223,5,0,3
15,247,1,0.741935015,6,0,3
15,248,1,0.771584988,3,5,3
15,249,1,0.750313282,5,0,3
15,250,1,1.067949057,1,3,3
15,251,1,0.873905897,2,0,3
15,252,1,0.654883146,6,0,3
15,253,1,0.740669727,2,0,3
15,254,1,0.76008296,3,0,3
15,255,1,0.680829287,4,0,3
15,256,1,0.806983232,3,0,3
15,257,1,0.902473211,1,0,3
15,258,1,0.940285921,2,3,3
15,259,1,1.455224037,6,3,3
15,260,1,1.021296978,5,3,3
15,261,1,2.499201536,6,3,3
15,262,1,0.676644802,4,0,3
15,263,1,0.991195202,4,3,3
15,264,1,0.770410061,6,0,3
15,265,1,0.76109767,4,3,3
15,266,1,0.77900362,1,3,3
15,267,1,0.616065264,5,0,3
15,268,1,0.591481924,3,0,3
15,269,1,0.500259161,5,0,3
15,270,1,0.719689846,2,3,3
15,271,1,0.678107023,2,3,3
15,272,1,0.557355642,1,0,3
15,273,0,0.77801013,2,4,3
15,274,1,0.95383358,4,0,3
15,275,1,1.712565184,4,3,3
15,276,1,1.066184282,3,6,3
15,277,1,0.980651855,5,0,3
15,278,1,0.85941577,5,3,3
15,279,1,0.935634613,2,0,3
15,280,1,1.005137205,2,0,3
15,281,1,0.797929049,1,5,3
15,282,1,0.805620193,1,3,3
15,283,1,0.783402443,3,0,3
15,284,1,1.088017941,5,6,3
15,285,1,1.062990189,3,4,3
15,286,1,0.778719902,1,0,3
15,287,1,0.622866154,6,3,3
15,288,1,0.617204189,4,3,3
15,289,1,0.653043509,5,3,3
15,290,1,1.026032925,5,3,3
15,291,1,0.676665306,6,2,3
15,292,1,1.782760382,1,3,3
15,293,1,0.677422047,6,3,3
15,294,1,0.846904755,2,0,3
15,295,1,0.971041203,3,1,3
15,296,1,0.985355616,1,0,3
15,297,1,0.624570131,3,0,3
15,298,1,1.691551924,2,3,3
15,299,1,0.839152813,6,0,3
15,300,1,0.54311204,1,0,3
15,301,1,0.953002214,2,0,3
15,302,1,0.908645391,1,3,3
15,303,1,0.791295767,3,0,3
15,304,1,0.66340971,2,0,3
15,305,1,0.669088125,4,0,3
15,306,1,0.944972038,4,3,3
15,307,1,0.664067984,5,0,3
15,308,1,0.56444478,1,3,3
15,309,1,0.730432987,1,0,3
15,310,1,0.724439859,3,0,3
15,311,1,1.065514565,6,2,3
15,312,1,0.701359034,1,0,3
15,313,1,1.089183569,4,3,3
15,314,1,0.631848097,6,0,3
15,315,0,1.29187417,6,3,3
15,316,1,1.131386042,4,1,3
15,317,1,2.052381277,2,0,3
15,318,1,1.870839119,2,4,3
15,319,1,0.845174551,3,0,3
15,320,1,0.774380207,4,0,3
15,321,1,0.928986549,4,3,3
15,322,1,0.944493771,3,0,3
15,323,1,1.273216009,1,3,3
15,324,1,0.822290897,5,0,3
15,325,1,0.59812355,3,0,3
15,326,1,1.311197042,5,3,3
15,327,1,1.619583845,5,6,3
15,328,1,1.174483538,3,1,3
15,329,1,1.095558405,2,0,3
15,330,1,1.384047031,3,6,3
15,331,1,0.938342571,3,2,3
15,332,1,0.872766018,1,5,3
15,333,1,0.857074976,1,3,3
15,334,1,1.035073757,6,3,3
15,335,1,0.774576664,6,0,3
15,336,1,0.753744125,2,3,3
15,337,1,1.462181091,4,0,3
15,338,1,1.869178295,6,0,3
15,339,1,1.075469494,2,3,3
15,340,1,1.407095194,2,3,3
15,341,1,1.24341011,5,3,3
15,342,1,0.774574995,6,3,3
15,343,1,0.832032919,2,0,3
15,344,1,0.831255913,4,0,3
15,345,1,1.215568304,3,4,3
15,346,1,0.936579943,4,3,3
15,347,1,1.781811476,5,3,3
15,348,1,0.765896559,4,0,3
15,349,1,0.922043085,1,0,3
15,350,1,0.942952871,6,0,3
15,351,1,0.789683819,5,3,3
15,352,1,0.619924307,5,0,3
15,353,1,0.74592495,3,5,3
15,354,1,0.663617134,6,3,3
15,355,1,1.039546728,5,0,3
15,356,1,0.773391962,2,3,3
15,357,1,0.859069824,6,0,3
15,358,1,0.630005598,1,0,3
15,359,1,0.589026928,5,0,3
15,360,1,0.627959013,1,0,3
16,1,1,1.130525589,4,0,4
16,2,1,0.976347685,3,0,4
16,3,1,1.173025846,3,4,4
16,4,1,1.136855602,4,2,4
16,5,1,1.079738855,6,0,4
16,6,1,1.471471786,5,0,4
16,7,1,1.081125259,3,4,4
16,8,1,1.020077705,3,4,4
16,9,1,1.441982985,3,0,4
16,10,1,1.261588573,2,1,4
16,11,1,1.678477764,2,4,4
16,12,1,1.263401747,6,4,4
16,13,1,0.884336948,2,4,4
16,14,1,1.079055309,2,4,4
16,15,1,1.320337296,5,4,4
16,16,1,1.385286093,1,0,4
16,17,1,1.460346937,4,0,4
16,18,1,1.383538246,3,0,4
16,19,1,0.96788764,6,0,4
16,20,1,1.642869711,6,0,4
16,21,1,1.287539482,1,4,4
16,22,1,1.467849016,1,4,4
16,23,1,1.414406776,3,4,4
16,24,1,1.571233988,6,4,4
16,25,1,1.286134958,5,0,4
16,26,1,1.145520926,1,0,4
16,27,1,1.088154078,3,4,4
16,28,1,1.173171759,4,0,4
16,29,1,1.019163847,1,0,4
16,30,1,1.220502853,1,3,4
16,31,1,1.12248826,3,0,4
16,32,1,1.151910067,4,6,4
16,33,1,0.969565392,5,0,4
16,34,1,1.61653018,1,4,4
16,35,1,1.463454723,6,4,4
16,36,1,1.635273933,1,0,4
16,37,1,1.420164824,6,4,4
16,38,1,1.226764679,6,2,4
16,39,1,0.885941505,2,0,4
16,40,1,1.778315783,2,4,4
16,41,1,1.751327753,4,3,4
16,42,1,1.054107666,1,4,4
16,43,1,1.076998711,4,5,4
16,44,1,1.176646948,4,0,4
16,45,1,1.367778063,2,0,4
16,46,1,1.252321959,5,0,4
16,47,1,2.557153225,2,0,4
16,48,1,1.11480546,1,0,4
16,49,1,1.251100302,5,4,4
16,50,1,1.499396801,6,0,4
16,51,1,1.387728691,5,6,4
16,52,1,1.818256855,4,0,4
16,53,1,1.349951029,3,0,4
16,54,1,1.278022766,3,5,4
16,55,1,0.832448721,2,0,4
16,56,1,0.781469107,6,0,4
16,57,1,0.720489979,2,0,4
16,58,1,0.901400328,5,0,4
16,59,1,1.289485216,4,1,4
16,60,1,1.047447443,5,4,4
16,61,1,1.655860662,3,4,4
16,62,1,1.434185028,4,2,4
16,63,1,1.219082832,3,0,4
16,64,1,1.791133881,3,4,4
16,65,1,1.256219625,1,4,4
16,66,1,1.317440987,5,4,4
16,67,1,1.028478384,6,4,4
16,68,1,1.053115606,4,1,4
16,69,1,1.010987997,3,0,4
16,70,1,1.267378092,5,0,4
16,71,1,1.419086218,2,4,4
16,72,1,1.165872097,3,0,4
16,73,1,1.963176012,1,4,4
16,74,1,0.839688301,4,0,4
16,75,1,0.909211159,3,5,4
16,76,1,0.931751013,2,0,4
16,77,1,1.006569862,5,4,4
16,78,1,1.62362504,4,5,4
16,79,1,1.615625858,4,0,4
16,80,1,1.21730423,5,0,4
16,81,1,1.393895149,2,1,4
16,82,1,1.332187891,3,0,4
16,83,1,1.257246256,1,3,4
16,84,1,1.510773659,1,4,4
16,85,1,1.337270975,4,6,4
16,86,1,1.557630539,5,4,4
16,87,1,0.83853507,6,0,4
16,88,1,1.971519709,1,0,4
16,89,1,1.060424805,6,0,4
16,90,1,1.842905045,6,2,4
16,91,1,1.177412987,2,0,4
16,92,1,1.888065577,1,0,4
16,93,1,1.368153572,2,4,4
16,94,1,0.934180975,6,4,4
16,95,1,0.776511908,1,4,4
16,96,1,1.643431425,4,3,4
16,97,1,1.156533718,5,0,4
16,98,1,1.580136776,3,4,4
16,99,1,1.04181242,1,0,4
16,100,1,0.898973703,6,0,4
16,101,1,0.913934946,6,0,4
16,102,1,1.466053724,3,4,4
16,103,1,0.839705944,5,0,4
16,104,1,1.21792984,6,4,4
16,105,1,1.850277901,6,4,4
16,106,1,0.747709751,4,0,4
16,107,1,1.391564846,3,4,4
16,108,1,0.680378914,4,0,4
16,109,1,1.004884958,3,0,4
16,110,0,0.777881861,6,0,4
16,111,1,1.547807932,5,0,4
16,112,1,0.890652895,2,0,4
16,113,1,1.520793676,5,6,4
16,114,1,1.04208231,2,0,4
16,115,1,0.919579744,1,0,4
16,116,1,0.70555687,1,0,4
16,117,1,1.20667696,4,0,4
16,118,1,1.084733248,2,0,4
16,119,1,1.53059268,2,4,4
16,120,1,1.41021657,2,4,4
16,121,1,0.881044388,5,0,4
16,122,1,1.072746992,2,4,4
16,123,1,0.957103491,1,0,4
16,124,1,0.879779339,2,4,4
16,125,1,1.199444056,5,4,4
16,126,1,0.877269268,5,6,4
16,127,1,1.047222376,6,4,4
16,128,1,0.761247873,5,0,4
16,129,1,1.313043833,4,5,4
16,130,1,1.509783745,3,0,4
16,131,1,1.253343105,2,0,4
16,132,1,1.355250835,3,4,4
16,133,1,1.143301964,3,5,4
16,134,1,1.461917877,1,0,4
16,135,1,1.150300741,5,4,4
16,136,1,1.758751154,6,0,4
16,137,1,1.037341833,4,6,4
16,138,1,0.674717665,4,0,4
16,139,1,1.549674988,5,0,4
16,140,1,0.877450705,2,0,4
16,141,1,0.888882875,5,0,4
16,142,1,0.69348073,3,0,4
16,143,1,0.755876064,4,0,4
16,144,1,1.627903938,4,3,4
16,145,1,0.919453382,5,4,4
16,146,1,1.170781136,2,1,4
16,147,1,1.035608053,2,0,4
16,148,1,0.965418816,1,3,4
16,149,1,1.272241116,3,4,4
16,150,1,0.853702784,5,0,4
16,151,1,0.861834526,1,4,4
16,152,1,0.913086891,1,0,4
16,153,1,1.089493513,2,0,4
16,154,1,1.810086966,3,4,4
16,155,1,0.903381824,6,0,4
16,156,1,1.004546404,4,2,4
16,157,1,0.967118025,3,0,4
16,158,1,1.333907127,6,4,4
16,159,1,1.084009647,1,4,4
16,160,1,0.893499613,6,0,4
16,161,1,0.681479931,4,0,4
16,162,0,1.436459303,1,4,4
16,163,1,2.848867893,2,4,4
16,164,1,0.891638041,6,4,4
16,165,1,0.814543962,6,0,4
16,166,1,1.055737972,4,0,4
16,167,1,0.758833885,1,0,4
16,168,1,0.906152487,6,4,4
16,169,1,0.742214918,6,0,4
16,170,1,1.407526493,3,4,4
16,171,1,1.124169111,3,4,4
16,172,1,0.970378876,6,2,4
16,173,1,0.792164803,2,0,4
16,174,1,0.899554491,3,0,4
16,175,1,1.007484198,1,0,4
16,176,1,1.005604744,4,0,4
16,177,1,0.906817675,4,1,4
16,178,1,1.144898653,2,4,4
16,179,1,2.049297333,1,4,4
16,180,1,1.247734308,3,0,4
16,181,1,1.060179472,4,0,4
16,182,1,1.293351412,2,4,4
16,183,1,0.846284866,2,0,4
16,184,1,1.074983597,4,3,4
16,185,1,1.431803465,6,4,4
16,186,1,0.986404419,4,5,4
16,187,1,1.071505547,6,4,4
16,188,1,1.152853489,5,0,4
16,189,1,0.929346085,2,4,4
16,190,1,0.980634689,4,0,4
16,191,1,0.58986783,1,0,4
16,192,1,1.14744997,4,0,4
16,193,1,1.34707427,6,0,4
16,194,1,1.44277072,6,4,4
16,195,1,0.968061924,4,0,4
16,196,1,2.375871181,6,2,4
16,197,1,0.855371237,4,6,4
16,198,1,0.712898254,2,0,4
16,199,1,1.059284925,3,4,4
16,200,1,1.042443752,3,0,4
16,201,1,0.764973164,1,0,4
16,202,1,1.201653719,3,5,4
16,203,1,1.05967617,1,0,4
16,204,1,2.169117212,2,0,4
16,205,1,1.424248695,3,0,4
16,206,1,1.405910254,6,4,4
16,207,1,1.139027119,3,0,4
16,208,1,2.643743992,5,4,4
16,209,1,0.824069977,2,0,4
16,210,0,1.14316535,3,4,4
16,211,1,0.767472267,6,0,4
16,212,1,2.836091757,1,3,4
16,213,1,2.92151475,1,4,4
16,214,1,0.742231607,2,4,4
16,215,1,1.02673173,3,4,4
16,216,1,1.501664162,4,1,4
16,217,1,1.855624914,1,4,4
16,218,1,0.84680748,6,0,4
16,219,1,1.60691452,2,1,4
16,220,1,1.674010038,3,0,4
16,221,1,1.14585495,1,4,4
16,222,1,1.399294853,5,4,4
16,223,1,0.924210072,3,0,4
16,224,1,1.060602903,5,6,4
16,225,1,0.964753389,5,0,4
16,226,1,1.226448774,5,0,4
16,227,1,1.16601634,1,0,4
16,228,1,2.045509815,6,0,4
16,229,1,1.924720287,2,0,4
16,230,1,0.87390399,6,0,4
16,231,1,1.015305758,4,0,4
16,232,1,1.291917324,4,2,4
16,233,1,1.465766191,1,4,4
16,234,1,1.302498579,3,4,4
16,235,1,0.775506973,5,0,4
16,236,1,0.656456947,5,0,4
16,237,1,0.937927961,5,4,4
16,238,1,0.671619892,1,0,4
16,239,1,1.694224596,2,4,4
16,240,1,1.177483082,3,4,4
16,241,1,1.007251978,4,0,4
16,242,1,0.959973812,4,0,4
16,243,1,1.134625196,4,0,4
16,244,1,1.009058714,5,4,4
16,245,1,0.782038927,2,0,4
16,246,1,0.818538904,5,0,4
16,247,1,0.812650919,2,4,4
16,248,1,0.688784361,4,0,4
16,249,1,0.707833052,2,0,4
16,250,1,0.889395237,6,4,4
16,251,1,1.291676283,6,4,4
16,252,1,1.032497883,1,0,4
16,253,1,1.02221489,2,4,4
16,254,1,0.768502474,6,0,4
16,255,1,0.879555225,2,0,4
16,256,1,1.029259205,5,0,4
16,257,1,0.833948374,1,4,4
16,258,1,0.863096714,6,2,4
16,259,1,1.071278811,5,0,4
16,260,1,1.456851959,3,0,4
16,261,1,1.039680958,1,0,4
16,262,1,0.947926998,6,4,4
16,263,1,0.707362413,2,4,4
16,264,1,0.913300514,5,0,4
16,265,1,0.704202175,6,0,4
16,266,1,1.122517824,3,4,4
16,267,1,1.083548546,4,0,4
16,268,1,0.757984161,6,0,4
16,269,1,0.663943291,6,4,4
16,270,1,0.797395945,3,0,4
16,271,1,1.088475704,5,6,4
16,272,1,0.898137093,3,4,4
16,273,1,0.675617456,3,0,4
16,274,1,0.801761866,1,4,4
16,275,1,1.26468873,4,3,4
16,276,1,0.890889645,4,5,4
16,277,1,0.953607798,5,0,4
16,278,1,1.562488317,1,3,4
16,279,1,1.049048185,5,4,4
16,280,1,1.162480354,4,2,4
16,281,1,1.150688887,3,4,4
16,282,1,1.168938637,3,5,4
16,283,1,1.058517933,2,1,4
16,284,1,0.936319113,1,0,4
16,285,1,1.040980577,1,4,4
16,286,1,0.94099164,1,0,4
16,287,1,1.083863974,4,1,4
16,288,1,1.414265156,5,4,4
16,289,1,0.700664043,3,0,4
16,290,1,0.733217955,6,0,4
16,291,1,0.687773705,2,0,4
16,292,1,0.626832962,6,0,4
16,293,1,1.04201889,2,4,4
16,294,1,0.825029373,1,0,4
16,295,1,0.731294155,1,4,4
16,296,1,0.79104495,2,0,4
16,297,1,1.205982924,3,4,4
16,298,1,0.832365274,3,4,4
16,299,1,1.692689896,4,6,4
16,300,1,0.83209157,3,0,4
16,301,1,0.932571411,2,4,4
16,302,1,0.738350868,1,0,4
16,303,1,1.241581678,4,6,4
16,304,1,0.725668192,2,0,4
16,305,1,0.649630785,1,4,4
16,306,1,0.797543287,4,0,4
16,307,1,0.765136719,4,0,4
16,308,1,0.901359797,3,4,4
16,309,1,0.643882036,6,0,4
16,310,1,0.933531284,5,0,4
16,311,1,0.973008394,5,4,4
16,312,1,0.847347021,2,0,4
16,313,1,0.809756041,1,4,4
16,314,1,1.327996016,1,4,4
16,315,1,1.267786741,4,3,4
16,316,1,0.878791809,5,0,4
16,317,1,1.228623867,2,4,4
16,318,1,1.4156425,4,2,4
16,319,1,0.706185341,6,0,4
16,320,1,0.947668552,3,0,4
16,321,1,1.836493969,2,1,4
16,322,1,0.695448875,6,0,4
16,323,1,0.995146275,4,0,4
16,324,1,1.528512001,5,0,4
16,325,1,1.859178782,3,0,4
16,326,1,0.646494865,2,4,4
16,327,1,0.979341269,5,0,4
16,328,1,0.823594093,6,0,4
16,329,1,1.255409479,6,4,4
16,330,1,1.241871119,3,0,4
16,331,1,0.88105607,5,4,4
16,332,1,0.790497541,1,0,4
16,333,1,0.622713327,2,0,4
16,334,1,1.018685818,3,4,4
16,335,1,0.854605198,2,0,4
16,336,1,1.392859459,4,1,4
16,337,1,0.785429716,3,0,4
16,338,1,0.849698782,3,5,4
16,339,1,0.807274103,6,2,4
16,340,1,0.743253946,4,0,4
16,341,1,0.832531691,3,4,4
16,342,1,0.906918049,5,4,4
16,343,1,0.840074539,1,4,4
16,344,1,1.252732992,1,3,4
16,345,1,0.685251474,6,4,4
16,346,1,0.634624958,1,0,4
16,347,1,1.034490347,4,0,4
16,348,1,1.009120464,5,6,4
16,349,1,0.700883627,2,4,4
16,350,1,0.86277914,6,0,4
16,351,1,1.094027996,3,4,4
16,352,1,1.078750134,6,4,4
16,353,1,0.602781057,6,4,4
16,354,1,0.825750113,1,0,4
16,355,1,0.660001516,2,0,4
16,356,1,1.208130121,4,5,4
16,357,1,1.024542809,5,0,4
16,358,1,0.991122246,3,4,4
16,359,1,1.294642687,3,0,4
16,360,1,0.757461786,1,0,4
18,1,1,0.732109547,2,0,2
18,2,1,0.631168365,1,0,2
18,3,1,1.185793638,4,2,2
18,4,1,0.709875822,4,1,2
18,5,1,1.311613083,5,2,2
18,6,1,0.9593153,1,2,2
18,7,1,0.739967823,4,2,2
18,8,1,0.60874486,6,0,2
18,9,1,0.830037117,4,0,2
18,10,1,0.794038296,3,2,2
18,11,1,1.003737926,2,0,2
18,12,1,0.909524202,1,0,2
18,13,1,0.857031822,1,0,2
18,14,1,0.868088961,3,0,2
18,15,1,1.354559183,2,6,2
18,16,1,1.522875786,6,2,2
18,17,1,0.834001303,4,0,2
18,18,1,0.727713346,2,3,2
18,19,1,0.886746168,4,0,2
18,20,1,1.126308918,1,2,2
18,21,1,1.668578386,4,0,2
18,22,1,0.962731123,6,0,2
18,23,1,0.983909607,6,2,2
18,24,0,1.018259764,5,0,2
18,25,1,1.054455042,6,2,2
18,26,1,0.856567621,3,0,2
18,27,1,0.934630394,6,0,2
18,28,1,0.61163044,6,2,2
18,29,1,0.808943748,4,2,2
18,30,1,0.544776678,5,2,2
18,31,1,1.022816658,5,2,2
18,32,1,0.528245211,2,0,2
18,33,1,0.887160063,4,0,2
18,34,1,1.032066584,2,4,2
18,35,1,0.715968132,3,0,2
18,36,1,0.771555901,4,2,2
18,37,1,0.967597961,1,5,2
18,38,1,0.703277111,3,2,2
18,39,1,1.131230116,3,4,2
18,40,1,0.770571947,1,2,2
18,41,1,0.821547508,6,0,2
18,42,1,0.710370302,5,6,2
18,43,1,0.762904882,5,0,2
18,44,1,0.678597927,3,2,2
18,45,1,0.837623596,5,0,2
18,46,1,0.942207575,5,0,2
18,47,1,0.5497756,3,0,2
18,48,1,0.61212182,6,0,2
18,49,1,0.664262295,1,0,2
18,50,1,0.890216827,2,5,2
18,51,1,0.617815018,1,0,2
18,52,1,0.60321188,1,2,2
18,53,0,0.630642891,2,0,2
18,54,1,1.115248203,3,0,2
18,55,1,0.660907745,6,3,2
18,56,1,1.043560982,3,2,2
18,57,1,0.690776825,5,0,2
18,58,1,1.505935192,5,2,2
18,59,1,0.566783905,2,0,2
18,60,1,0.71197176,2,1,2
18,61,1,0.714214563,2,1,2
18,62,1,0.599377394,2,0,2
18,63,1,1.347480774,6,3,2
18,64,1,0.632348776,3,0,2
18,65,1,0.729264498,5,2,2
18,66,1,0.843653917,5,6,2
18,67,1,0.688171864,6,0,2
18,68,1,0.970684767,4,0,2
18,69,1,0.576117754,3,0,2
18,70,1,0.795520067,5,0,2
18,71,1,0.704426765,4,2,2
18,72,1,0.96517992,4,2,2
18,73,1,0.890855074,1,0,2
18,74,1,0.774969816,1,2,2
18,75,1,0.879251003,5,0,2
18,76,1,1.072741985,1,0,2
18,77,0,0.942152977,6,0,2
18,78,1,1.74502635,3,2,2
18,79,1,1.733608961,3,2,2
18,80,0,1.689106941,3,2,2
18,81,1,1.11823225,6,0,2
18,82,1,1.619910002,3,0,2
18,83,1,1.399943113,5,2,2
18,84,1,0.977760792,2,0,2
18,85,1,1.494260073,1,5,2
18,86,1,0.831933975,4,0,2
18,87,1,0.966555834,2,0,2
18,88,1,2.53418684,3,4,2
18,89,1,0.915634871,4,2,2
18,90,1,1.239904881,2,4,2
18,91,1,0.786178112,1,0,2
18,92,1,1.529297829,5,2,2
18,93,1,1.554502964,4,1,2
18,94,1,1.182177782,1,2,2
18,95,1,1.952836037,5,0,2
18,96,1,1.044560909,4,0,2
18,97,1,1.899649858,3,0,2
18,98,1,1.71820879,6,2,2
18,99,1,1.401776075,5,0,2
18,100,1,1.472754002,5,2,2
18,101,1,0.762434006,4,0,2
18,102,1,1.063620567,4,2,2
18,103,1,0.861514091,1,2,2
18,104,1,1.267813921,3,2,2
18,105,1,0.983941317,5,0,2
18,106,1,1.073308945,6,0,2
18,107,1,1.008118629,3,0,2
18,108,1,0.810720205,1,2,2
18,109,1,0.781735897,6,0,2
18,110,1,0.580605984,2,0,2
18,111,1,0.604772091,1,0,2
18,112,1,1.402703047,1,0,2
18,113,1,0.745111704,6,2,2
18,114,1,0.793013096,4,0,2
18,115,1,0.982544184,2,5,2
18,116,1,0.806966066,6,2,2
18,117,1,0.57273531,2,0,2
18,118,1,1.689384937,2,6,2
18,119,1,1.101270914,6,2,2
18,120,1,1.861571074,2,3,2
18,121,1,0.85042882,4,0,2
18,122,1,0.822850943,5,0,2
18,123,1,0.638666868,3,2,2
18,124,1,0.948064804,1,0,2
18,125,1,0.815543652,5,0,2
18,126,1,0.711365223,5,2,2
18,127,1,0.527041912,5,0,2
18,128,1,1.017768145,2,3,2
18,129,1,1.52984643,2,6,2
18,130,1,1.682115316,1,0,2
18,131,1,1.359658957,6,0,2
18,132,1,0.905935049,1,2,2
18,133,1,0.908621788,3,0,2
18,134,1,0.939638376,6,2,2
18,135,1,0.990843773,5,2,2
18,136,1,1.344468832,4,0,2
18,137,1,0.716164112,4,2,2
18,138,1,0.746740103,4,0,2
18,139,1,0.859248877,4,2,2
18,140,1,0.955418587,6,0,2
18,141,1,1.208310604,1,2,2
18,142,1,1.77683115,2,0,2
18,143,1,1.171728849,1,0,2
18,144,1,1.008064985,3,0,2
18,145,1,0.71358037,6,2,2
18,146,1,0.734452963,2,0,2
18,147,1,0.884123564,4,2,2
18,148,1,1.11839819,6,0,2
18,149,1,1.019726992,1,2,2
18,150,1,0.955946922,1,2,2
18,151,1,0.914089918,2,0,2
18,152,1,1.084994555,3,4,2
18,153,1,0.829128742,4,1,2
18,154,1,0.643227816,3,0,2
18,155,1,0.740888834,3,0,2
18,156,1,0.719879627,6,3,2
18,157,1,0.91586113,2,0,2
18,158,1,1.382594824,2,0,2
18,159,1,0.749053478,4,2,2
18,160,1,0.989920616,2,5,2
18,161,1,0.707625389,3,2,2
18,162,1,0.900365114,3,2,2
18,163,1,0.998334885,6,2,2
18,164,1,0.936246395,2,1,2
18,165,1,1.061036825,1,5,2
18,166,1,0.882199526,1,0,2
18,167,1,0.821661234,5,0,2
18,168,1,0.732467651,1,0,2
18,169,1,1.117595911,3,2,2
18,170,0,0.60296011,5,6,2
18,171,1,2.147345543,2,4,2
18,172,1,0.671844721,5,2,2
18,173,1,0.560192108,4,0,2
18,174,1,0.743523121,3,0,2
18,175,1,0.623859406,5,0,2
18,176,1,1.660823107,6,2,2
18,177,1,0.631952286,4,0,2
18,178,1,0.886570692,6,0,2
18,179,1,1.16635251,6,0,2
18,180,1,0.606925726,5,2,2
18,181,1,0.535463095,2,0,2
18,182,1,0.569680691,1,0,2
18,183,1,0.950470209,6,2,2
18,184,1,0.843063354,2,0,2
18,185,1,0.681979418,1,0,2
18,186,1,1.271817923,3,2,2
18,187,1,0.830876112,5,2,2
18,188,1,0.569849968,5,0,2
18,189,1,0.850891352,4,0,2
18,190,1,0.658501863,2,6,2
18,191,1,1.191448212,3,0,2
18,192,1,0.808978558,2,0,2
18,193,1,0.901849031,3,0,2
18,194,1,0.699371338,5,2,2
18,195,1,1.427765608,5,0,2
18,196,1,0.601839066,6,0,2
18,197,1,0.799685478,6,3,2
18,198,0,0.912187338,6,2,2
18,199,1,0.642859697,3,0,2
18,200,1,0.845530033,3,2,2
18,201,1,1.225203514,5,0,2
18,202,1,0.82942462,1,2,2
18,203,1,0.959261894,4,2,2
18,204,1,0.586486816,6,0,2
18,205,1,1.756857634,3,4,2
18,206,1,1.383023739,5,2,2
18,207,1,1.067846775,3,2,2
18,208,1,0.909024,2,0,2
18,209,1,0.716175079,6,0,2
18,210,1,0.912079096,4,2,2
18,211,1,1.153612852,6,0,2
18,212,1,0.956422091,3,2,2
18,213,1,0.927551031,3,0,2
18,214,1,1.529281616,4,2,2
18,215,1,0.773523569,4,2,2
18,216,1,0.587342262,2,3,2
18,217,1,0.906692266,1,2,2
18,218,1,0.723834753,6,0,2
18,219,1,0.768214226,4,1,2
18,220,1,0.788984537,5,0,2
18,221,1,0.928548813,4,0,2
18,222,1,1.037914276,1,2,2
18,223,1,0.697124004,1,0,2
18,224,1,0.799572706,5,6,2
18,225,1,1.077508688,2,1,2
18,226,1,0.694023848,6,2,2
18,227,1,0.71103096,4,0,2
18,228,1,0.681996822,4,0,2
18,229,1,0.705926895,2,0,2
18,230,1,1.414508343,2,4,2
18,231,1,0.790282726,6,2,2
18,232,1,1.420282841,5,0,2
18,233,1,0.709182739,1,0,2
18,234,1,1.207658291,1,5,2
18,235,1,0.67847085,2,5,2
18,236,1,0.568840027,1,0,2
18,237,1,0.653043747,3,0,2
18,238,1,1.040836334,5,2,2
18,239,1,0.865104675,1,2,2
18,240,1,0.770933867,4,0,2
18,241,1,0.874988794,6,2,2
18,242,1,0.706033707,5,2,2
18,243,1,0.532989025,1,0,2
18,244,1,0.536571741,3,2,2
18,245,1,0.489048004,2,4,2
18,246,1,0.518007517,4,0,2
18,247,1,0.923855782,3,0,2
18,248,1,0.819923878,4,0,2
18,249,1,0.733745575,6,0,2
18,250,1,1.033270836,2,6,2
18,251,1,0.692719698,3,0,2
18,252,1,1.042426348,5,0,2
18,253,1,0.960243702,6,3,2
18,254,1,0.549952269,3,0,2
18,255,1,0.775124073,4,2,2
18,256,1,0.599297047,3,0,2
18,257,1,0.701843023,1,0,2
18,258,1,0.77909255,4,2,2
18,259,1,1.621273756,4,2,2
18,260,1,1.065609455,3,2,2
18,261,1,0.616645813,3,2,2
18,262,1,0.827932119,1,0,2
18,263,1,1.087789059,3,2,2
18,264,1,0.957331181,6,0,2
18,265,1,0.720017672,1,0,2
18,266,1,0.874339819,5,2,2
18,267,1,0.680076122,2,0,2
18,268,1,0.939697981,5,6,2
18,269,1,0.763897181,4,1,2
18,270,1,0.945055962,6,0,2
18,271,1,0.632639885,1,5,2
18,272,1,0.6571033,5,0,2
18,273,1,0.559551001,5,2,2
18,274,1,0.790555,6,0,2
18,275,1,0.564599991,2,0,2
18,276,1,0.72097373,5,0,2
18,277,1,1.046891212,2,0,2
18,278,1,0.709601641,4,2,2
18,279,0,0.660488844,2,1,2
18,280,1,0.818040609,6,0,2
18,281,1,0.603808641,1,2,2
18,282,1,0.634989977,5,0,2
18,283,1,0.81441617,1,0,2
18,284,1,0.855095625,4,0,2
18,285,1,0.932933807,5,0,2
18,286,1,1.33296442,2,3,2
18,287,0,0.596999884,1,2,2
18,288,1,0.679648161,2,0,2
18,289,1,1.299441338,6,2,2
18,290,1,0.642294407,3,0,2
18,291,1,0.791306973,3,4,2
18,292,1,1.09453392,2,0,2
18,293,1,0.693638086,5,2,2
18,294,1,1.417093039,4,0,2
18,295,1,0.973104,6,2,2
18,296,1,0.939286947,1,2,2
18,297,1,0.754158497,4,0,2
18,298,1,0.839723349,1,2,2
18,299,1,0.593615294,2,5,2
18,300,1,0.71173811,6,2,2
18,301,1,0.600548744,1,0,2
18,302,1,0.818255901,3,0,2
18,303,1,0.69895649,1,5,2
18,304,1,0.646208048,6,0,2
18,305,1,0.59530592,2,0,2
18,306,1,0.712987185,4,0,2
18,307,1,0.598999262,5,0,2
18,308,1,0.611529589,2,1,2
18,309,1,0.48199296,1,0,2
18,310,1,0.958114624,1,0,2
18,311,1,0.899275541,5,6,2
18,312,1,0.666725159,3,0,2
18,313,1,0.562795162,3,2,2
18,314,1,0.593386889,1,2,2
18,315,0,0.672457218,6,0,2
18,316,1,0.732740402,3,0,2
18,317,1,1.136612892,3,4,2
18,318,1,0.485569,3,2,2
18,319,1,0.639483929,1,0,2
18,320,1,0.528598785,2,5,2
18,321,1,0.677836657,4,0,2
18,322,1,0.516601801,6,0,2
18,323,1,0.617276907,3,0,2
18,324,1,0.592827559,5,0,2
18,325,1,0.972609758,3,2,2
18,326,1,0.546397686,2,4,2
18,327,1,1.846875668,1,2,2
18,328,1,0.609116316,4,0,2
18,329,1,0.995426655,6,0,2
18,330,1,0.568094492,2,0,2
18,331,0,0.654068708,2,3,2
18,332,1,1.312084675,2,0,2
18,333,1,0.632770538,4,1,2
18,334,1,0.842085838,2,0,2
18,335,1,0.821604967,4,2,2
18,336,1,1.153284788,1,2,2
18,337,1,0.716217041,5,0,2
18,338,1,0.59485817,3,2,2
18,339,1,0.698830605,5,2,2
18,340,1,0.976477146,3,0,2
18,341,1,0.695642948,4,0,2
18,342,1,0.577811956,1,2,2
18,343,1,0.563525677,6,2,2
18,344,1,0.899719715,4,2,2
18,345,1,0.692276001,5,2,2
18,346,1,0.659867048,2,6,2
18,347,1,0.607615948,5,2,2
18,348,1,0.818331957,5,2,2
18,349,1,0.7289958,4,2,2
18,350,1,0.620322227,2,0,2
18,351,1,0.818892956,5,0,2
18,352,1,1.330123186,6,0,2
18,353,0,1.610440016,6,2,2
18,354,1,0.737533808,4,0,2
18,355,1,1.170721054,6,2,2
18,356,1,1.072004795,6,2,2
18,357,1,0.662990808,6,3,2
18,358,1,0.804002047,1,0,2
18,359,1,0.791594744,5,0,2
18,360,1,0.969404936,4,2,2
19,1,1,1.270064354,3,5,5
19,2,1,1.12078476,6,0,5
19,3,1,0.806516171,1,5,5
19,4,1,0.817157507,5,4,5
19,5,1,0.657824755,4,5,5
19,6,1,0.739664078,3,5,5
19,7,1,0.9186759,1,5,5
19,8,1,0.834321976,1,0,5
19,9,1,0.701509953,2,0,5
19,10,1,0.843375444,2,5,5
19,11,1,0.96238184,3,2,5
19,12,1,1.143460274,5,6,5
19,13,1,0.790691853,1,0,5
19,14,1,0.769237041,3,5,5
19,15,1,0.819730759,3,0,5
19,16,1,0.775306702,2,5,5
19,17,1,0.749037981,6,0,5
19,18,1,0.721254587,1,5,5
19,19,1,0.926831245,6,0,5
19,20,1,0.805840015,2,5,5
19,21,1,0.792932987,5,0,5
19,22,1,0.735023975,5,2,5
19,23,1,0.644021034,1,0,5
19,24,1,0.816127062,1,5,5
19,25,1,0.742077351,3,0,5
19,26,1,0.770474195,2,0,5
19,27,1,0.986198187,6,1,5
19,28,1,1.070105553,6,5,5
19,29,1,0.779650927,1,0,5
19,30,1,1.120472193,4,0,5
19,31,1,0.939456701,5,0,5
19,32,1,0.713211298,3,5,5
19,33,1,0.698774099,2,5,5
19,34,1,1.371621132,4,0,5
19,35,1,0.697045803,2,6,5
19,36,1,0.809318542,3,0,5
19,37,1,0.571671486,4,5,5
19,38,1,0.634917498,6,0,5
19,39,1,0.72367692,4,0,5
19,40,1,0.894209146,5,1,5
19,41,0,0.916481972,3,0,5
19,42,1,1.092187166,4,0,5
19,43,1,0.714283228,2,0,5
19,44,1,0.728574038,1,5,5
19,45,1,0.740168571,5,0,5
19,46,1,0.757135391,4,5,5
19,47,1,0.999421835,6,5,5
19,48,1,0.846631289,4,5,5
19,49,1,0.688696861,6,0,5
19,50,1,0.837672949,1,0,5
19,51,1,1.126752615,6,5,5
19,52,1,1.080711842,5,0,5
19,53,0,0.949670076,2,0,5
19,54,1,1.583131552,5,3,5
19,55,1,0.857176065,3,0,5
19,56,1,1.229560137,6,5,5
19,57,1,1.078776121,4,0,5
19,58,1,1.012707949,2,0,5
19,59,1,1.138925314,4,3,5
19,60,1,1.578200102,5,0,5
19,61,1,0.927854538,2,5,5
19,62,1,0.998821497,3,5,5
19,63,1,1.0710783,6,0,5
19,64,1,0.733962536,3,5,5
19,65,1,0.695542097,2,6,5
19,66,1,0.632784605,4,0,5
19,67,1,0.741290808,3,0,5
19,68,1,1.799649954,4,3,5
19,69,1,1.166982651,4,0,5
19,70,1,0.742306948,4,5,5
19,71,1,0.745826721,2,0,5
19,72,1,0.758190632,6,0,5
19,73,1,0.689931393,6,5,5
19,74,1,1.052547693,1,0,5
19,75,1,0.784455299,1,5,5
19,76,1,1.199163437,1,0,5
19,77,1,2.567834616,3,0,5
19,78,1,0.638520479,1,5,5
19,79,1,1.5879457,2,5,5
19,80,0,1.000448942,1,0,5
19,81,1,1.763722181,4,0,5
19,82,1,1.094594717,4,0,5
19,83,1,0.968828678,2,5,5
19,84,1,0.734100819,3,0,5
19,85,1,0.993314266,5,4,5
19,86,1,0.855624676,2,0,5
19,87,1,1.003039122,5,1,5
19,88,1,0.648454905,2,0,5
19,89,1,0.996230841,6,5,5
19,90,1,0.784899235,5,0,5
19,91,1,0.743710279,3,2,5
19,92,1,0.618019819,6,0,5
19,93,1,0.736404896,2,5,5
19,94,1,0.889953375,6,0,5
19,95,1,0.739524841,5,6,5
19,96,0,0.75649929,3,5,5
19,97,1,0.618285656,1,5,5
19,98,1,0.57192564,1,5,5
19,99,1,0.637394905,4,5,5
19,100,1,0.65598464,4,5,5
19,101,1,0.721607208,3,0,5
19,102,1,0.872171879,6,5,5
19,103,1,0.612360001,3,0,5
19,104,1,0.867987871,5,0,5
19,105,1,0.658449173,5,0,5
19,106,1,0.63388133,5,0,5
19,107,1,1.323529005,4,0,5
19,108,1,1.044463158,6,5,5
19,109,1,1.161844969,2,0,5
19,110,1,0.673953772,5,0,5
19,111,1,1.328756809,1,5,5
19,112,1,0.982834816,6,0,5
19,113,0,0.616631508,5,3,5
19,114,1,1.352711439,1,0,5
19,115,1,1.260412693,4,5,5
19,116,0,0.68253994,5,2,5
19,117,1,2.037644863,2,0,5
19,118,1,1.567906857,6,1,5
19,119,1,0.636128664,1,0,5
19,120,1,0.81016922,3,5,5
19,121,1,0.774191856,2,0,5
19,122,1,0.95486784,3,5,5
19,123,1,0.751897573,4,5,5
19,124,1,0.734008074,4,5,5
19,125,1,0.602885008,4,0,5
19,126,1,0.633187532,5,0,5
19,127,1,0.717069149,1,5,5
19,128,1,0.712404013,2,0,5
19,129,1,0.834589005,6,5,5
19,130,1,0.713568687,3,5,5
19,131,1,0.789228916,6,1,5
19,132,1,0.681217909,5,3,5
19,133,1,0.569882154,2,0,5
19,134,1,0.615232706,2,5,5
19,135,1,0.650749922,4,5,5
19,136,1,0.59280014,1,5,5
19,137,1,0.836728096,3,0,5
19,138,1,0.725864887,5,0,5
19,139,1,0.694545507,5,0,5
19,140,1,1.542673111,5,6,5
19,141,1,1.021760464,1,5,5
19,142,1,0.770612717,5,0,5
19,143,1,0.736032009,1,5,5
19,144,1,0.774817705,5,4,5
19,145,1,1.164160728,1,0,5
19,146,1,0.876600981,5,1,5
19,147,1,0.825383902,3,2,5
19,148,1,0.555630207,6,0,5
19,149,1,0.583044052,4,0,5
19,150,1,0.544613361,4,0,5
19,151,1,0.606583834,4,3,5
19,152,1,0.798749924,1,0,5
19,153,1,0.840814114,4,5,5
19,154,1,0.684851885,6,5,5
19,155,1,0.478365183,2,5,5
19,156,0,0.79712081,3,0,5
19,157,1,0.704777956,2,6,5
19,158,1,0.801968575,2,0,5
19,159,1,0.639450073,2,5,5
19,160,1,0.591510057,3,5,5
19,161,1,0.605254889,1,5,5
19,162,1,0.661228657,1,0,5
19,163,1,0.683494091,4,0,5
19,164,1,1.778415918,6,0,5
19,165,1,0.622573376,1,0,5
19,166,1,0.597689629,3,0,5
19,167,1,0.549978256,4,0,5
19,168,0,0.702340126,6,5,5
19,169,1,0.700417995,2,0,5
19,170,1,0.802873611,6,0,5
19,171,1,0.583563805,6,0,5
19,172,1,0.506962776,1,0,5
19,173,1,0.749196768,6,0,5
19,174,1,0.590960741,3,0,5
19,175,1,0.825165987,2,5,5
19,176,1,0.701262951,5,0,5
19,177,1,0.591063976,3,0,5
19,178,1,0.685083389,3,5,5
19,179,1,0.637403488,5,2,5
19,180,1,0.481014252,6,5,5
19,181,1,0.865247488,3,0,5
19,182,1,0.987894297,2,0,5
19,183,1,0.584397554,4,0,5
19,184,0,0.798674822,6,5,5
19,185,1,0.931075811,6,0,5
19,186,1,0.619835615,3,0,5
19,187,1,0.79588747,1,5,5
19,188,1,0.853148937,5,0,5
19,189,1,0.745113611,2,0,5
19,190,1,0.539076328,4,0,5
19,191,1,1.452137947,2,0,5
19,192,1,1.104740381,4,5,5
19,193,1,1.097144127,6,0,5
19,194,1,0.80492568,4,5,5
19,195,1,0.892263889,6,0,5
19,196,1,0.679053545,6,1,5
19,197,1,0.562785149,6,5,5
19,198,1,0.719902754,1,0,5
19,199,1,0.814137459,5,6,5
19,200,1,0.701122046,3,5,5
19,201,1,1.57760191,5,0,5
19,202,1,0.653112888,4,3,5
19,203,1,0.782438993,2,5,5
19,204,1,0.904249907,4,5,5
19,205,1,0.679687738,3,5,5
19,206,1,0.855376005,3,0,5
19,207,1,0.655997753,2,6,5
19,208,1,0.598124743,5,0,5
19,209,1,0.960319757,1,5,5
19,210,1,0.585517168,1,5,5
19,211,0,0.724395037,6,5,5
19,212,1,0.750097036,1,0,5
19,213,1,0.662436247,5,0,5
19,214,1,0.47783947,3,5,5
19,215,1,0.771807909,6,0,5
19,216,1,0.592601299,2,5,5
19,217,1,0.554712534,3,0,5
19,218,1,0.683980227,1,0,5
19,219,1,0.640769005,4,0,5
19,220,1,0.529347181,4,0,5
19,221,1,0.733352661,5,2,5
19,222,1,0.872792244,1,0,5
19,223,1,0.653068304,2,5,5
19,224,1,0.6035676,6,0,5
19,225,1,0.62571454,1,0,5
19,226,1,0.931645632,2,0,5
19,227,1,0.760763884,5,0,5
19,228,1,0.846277714,1,5,5
19,229,1,0.683410406,6,5,5
19,230,1,0.93268013,5,3,5
19,231,1,0.718950033,4,0,5
19,232,1,0.707332134,3,2,5
19,233,1,1.010014057,3,5,5
19,234,1,0.615526915,5,4,5
19,235,1,0.695952892,5,1,5
19,236,1,0.59309411,2,5,5
19,237,1,0.837188244,4,5,5
19,238,1,0.846396446,2,0,5
19,239,1,0.588421822,3,0,5
19,240,1,0.605527878,1,5,5
19,241,1,0.724502325,6,0,5
19,242,1,0.602475166,2,0,5
19,243,1,0.574718952,3,0,5
19,244,1,0.813679934,6,5,5
19,245,1,0.690567255,5,1,5
19,246,0,0.587613106,1,5,5
19,247,1,0.8266747,4,0,5
19,248,1,0.735909939,3,0,5
19,249,1,0.985066652,6,0,5
19,250,1,0.678688765,1,0,5
19,251,1,0.712659359,3,5,5
19,252,1,0.523199081,1,0,5
19,253,1,0.543670654,1,0,5
19,254,1,1.106315136,6,0,5
19,255,1,0.783262253,1,5,5
19,256,1,0.696842194,2,6,5
19,257,1,0.789218664,5,0,5
19,258,1,0.75319767,3,2,5
19,259,1,1.075548887,5,4,5
19,260,1,0.859950781,1,5,5
19,261,1,0.516860247,5,3,5
19,262,1,0.712296009,4,3,5
19,263,1,0.783034563,2,5,5
19,264,1,0.677073956,6,5,5
19,265,1,0.855873108,4,0,5
19,266,1,0.678117752,2,0,5
19,267,1,0.772152901,6,1,5
19,268,1,0.552559137,1,0,5
19,269,1,0.654827833,4,5,5
19,270,1,0.585010052,6,5,5
19,271,1,0.848965883,3,0,5
19,272,1,0.63613534,2,5,5
19,273,1,1.9763062,5,0,5
19,274,1,0.962424755,3,0,5
19,275,1,0.819805861,2,5,5
19,276,1,0.503489017,2,0,5
19,277,1,0.759093046,5,0,5
19,278,1,0.710960865,1,0,5
19,279,1,0.676684856,6,0,5
19,280,1,0.747209072,4,0,5
19,281,1,0.634371758,3,5,5
19,282,1,0.623023987,4,5,5
19,283,1,0.611948967,1,5,5
19,284,1,0.62887764,4,5,5
19,285,1,0.65284586,2,5,5
19,286,1,0.560126781,6,0,5
19,287,1,1.080974102,5,0,5
19,288,1,0.489569902,2,0,5
19,289,0,0.568508863,4,0,5
19,290,1,0.538983822,6,5,5
19,291,1,1.661913633,1,5,5
19,292,1,0.649106979,3,5,5
19,293,1,0.606269836,3,5,5
19,294,1,0.536676884,3,0,5
19,295,1,0.570380688,5,0,5
19,296,1,0.445940495,2,0,5
19,297,1,0.522682905,5,6,5
19,298,1,0.583286047,4,0,5
19,299,1,1.257694721,4,5,5
19,300,1,0.608317137,5,2,5
19,301,1,0.997246265,3,0,5
19,302,1,1.121718884,1,0,5
19,303,1,0.680754185,3,5,5
19,304,1,0.669946909,5,2,5
19,305,1,0.895558596,2,0,5
19,306,1,0.756323814,4,5,5
19,307,1,0.794857502,5,4,5
19,308,1,0.626969814,2,5,5
19,309,1,0.527466059,1,5,5
19,310,1,0.636044025,6,1,5
19,311,1,0.675017357,1,5,5
19,312,1,0.530310869,4,0,5
19,313,1,0.59898591,2,5,5
19,314,1,0.563242912,6,5,5
19,315,1,0.541426659,1,5,5
19,316,1,0.708482981,2,6,5
19,317,1,0.640812159,6,0,5
19,318,1,0.608161926,3,0,5
19,319,1,0.9558599,2,0,5
19,320,0,0.968040705,6,0,5
19,321,1,1.074019909,4,0,5
19,322,1,1.008248568,5,3,5
19,323,1,0.645340919,3,0,5
19,324,1,0.657720089,4,5,5
19,325,1,0.693179131,3,0,5
19,326,1,0.782035112,1,5,5
19,327,1,0.540944099,5,0,5
19,328,1,0.708342791,6,0,5
19,329,1,0.632327318,4,0,5
19,330,1,0.714368343,6,5,5
19,331,1,0.820030928,1,5,5
19,332,1,0.590581417,5,0,5
19,333,1,0.589747429,2,5,5
19,334,1,0.606753588,1,0,5
19,335,1,0.563858032,1,0,5
19,336,1,0.644455671,3,0,5
19,337,1,0.686852455,2,0,5
19,338,1,0.761065245,5,0,5
19,339,1,0.578549862,1,0,5
19,340,1,0.546735764,2,0,5
19,341,1,0.699242353,6,0,5
19,342,1,1.334010124,5,6,5
19,343,1,0.630694151,5,0,5
19,344,1,1.164865017,6,5,5
19,345,1,0.680967808,4,0,5
19,346,1,0.564650297,6,0,5
19,347,1,0.96521616,1,0,5
19,348,1,0.735764027,4,5,5
19,349,1,0.869743824,4,3,5
19,350,1,0.74548173,6,5,5
19,351,1,0.958063841,3,5,5
19,352,1,0.615245819,3,5,5
19,353,1,0.597761154,3,5,5
19,354,1,0.850193262,4,0,5
19,355,1,0.645024061,5,1,5
19,356,1,0.447117567,2,0,5
19,357,1,0.499186039,5,0,5
19,358,1,0.638423681,3,2,5
19,359,1,0.690454006,4,5,5
19,360,1,0.519212008,2,5,5
20,1,1,1.059794426,3,0,4
20,2,1,0.910512209,4,1,4
20,3,1,1.208704948,6,0,4
20,4,1,0.828473568,2,0,4
20,5,1,0.747114897,5,4,4
20,6,1,0.904541492,3,0,4
20,7,1,0.74667716,1,0,4
20,8,1,0.603571892,1,0,4
20,9,1,0.625793934,4,0,4
20,10,1,0.916370392,3,0,4
20,11,1,0.907164097,6,0,4
20,12,1,0.837435961,6,0,4
20,13,1,0.651340723,2,0,4
20,14,1,0.548105001,3,4,4
20,15,1,1.02533102,3,4,4
20,16,1,0.99446702,4,0,4
20,17,1,0.793090343,5,4,4
20,18,1,0.629953146,2,0,4
20,19,1,0.763846636,3,0,4
20,20,1,0.590501547,4,0,4
20,21,1,0.842425823,5,4,4
20,22,1,0.976392508,4,5,4
20,23,1,1.300836325,2,4,4
20,24,1,1.023247004,6,4,4
20,25,1,0.616668701,3,0,4
20,26,1,0.682115555,3,5,4
20,27,1,0.837383747,1,4,4
20,28,1,0.794797659,2,4,4
20,29,1,1.018725395,4,3,4
20,30,1,0.672354698,6,4,4
20,31,1,0.592676878,1,0,4
20,32,1,0.821388721,5,6,4
20,33,1,0.735676289,1,3,4
20,34,1,0.714185715,5,0,4
20,35,1,0.549424887,2,0,4
20,36,1,1.091799736,6,4,4
20,37,1,0.650309086,2,0,4
20,38,1,1.187649965,6,4,4
20,39,1,0.564581871,4,0,4
20,40,1,0.611644506,1,0,4
20,41,0,0.496823311,5,0,4
20,42,1,0.913712978,5,0,4
20,43,1,0.624219656,1,4,4
20,44,1,0.589544058,1,4,4
20,45,1,0.691629887,5,0,4
20,46,1,0.870491743,3,4,4
20,47,1,0.831136703,2,1,4
20,48,0,0.980182648,6,0,4
20,49,1,0.959208965,4,6,4
20,50,1,0.854892731,4,2,4
20,51,1,0.922627926,5,0,4
20,52,1,1.428732872,3,4,4
20,53,1,0.802623987,1,4,4
20,54,1,0.949934006,3,4,4
20,55,1,1.017334938,2,4,4
20,56,1,0.707828045,6,2,4
20,57,1,0.858232975,4,0,4
20,58,1,0.630403042,6,0,4
20,59,1,0.563747883,1,0,4
20,60,1,1.079543114,2,4,4
20,61,1,0.888355255,5,0,4
20,62,1,1.092855692,3,4,4
20,63,1,0.586614847,6,0,4
20,64,1,1.764814138,5,0,4
20,65,1,0.541632652,3,4,4
20,66,1,0.86399579,2,0,4
20,67,1,0.689788818,1,4,4
20,68,1,0.525299788,6,0,4
20,69,0,0.536812782,2,1,4
20,70,1,0.645653248,2,4,4
20,71,1,0.928145885,5,0,4
20,72,1,0.633486986,2,4,4
20,73,1,0.849126577,4,5,4
20,74,1,1.154474258,1,0,4
20,75,1,0.755158663,6,4,4
20,76,1,0.921987772,3,5,4
20,77,1,0.862535477,3,4,4
20,78,1,0.672785044,4,0,4
20,79,1,0.898847103,4,0,4
20,80,1,1.106457472,1,4,4
20,81,1,0.596896887,3,4,4
20,82,1,0.889293671,3,0,4
20,83,1,0.84831357,5,4,4
20,84,1,0.695374012,4,0,4
20,85,1,0.772450686,1,4,4
20,86,1,0.757668018,1,4,4
20,87,0,0.50979805,4,1,4
20,88,1,0.570110559,1,0,4
20,89,1,0.670235872,1,3,4
20,90,1,0.59045887,1,0,4
20,91,1,0.797881842,2,4,4
20,92,1,0.855371237,5,6,4
20,93,1,0.517272472,2,4,4
20,94,1,0.59316206,5,0,4
20,95,1,0.904774904,4,6,4
20,96,1,0.601864576,1,0,4
20,97,1,0.694124699,3,0,4
20,98,1,0.72654891,3,4,4
20,99,1,0.841681004,4,2,4
20,100,1,0.7841537,2,0,4
20,101,1,0.599526167,1,0,4
20,102,1,0.704461813,2,0,4
20,103,1,0.576648951,3,0,4
20,104,1,0.660500765,5,4,4
20,105,1,0.537082911,6,0,4
20,106,1,0.659086704,6,4,4
20,107,1,1.011461496,6,4,4
20,108,1,0.571805716,3,0,4
20,109,1,0.697360754,2,0,4
20,110,1,0.679300308,3,0,4
20,111,1,0.773280859,2,0,4
20,112,1,0.668908596,4,0,4
20,113,1,0.744042635,6,0,4
20,114,1,0.621403933,5,0,4
20,115,1,1.026684284,4,3,4
20,116,1,0.665466309,6,0,4
20,117,1,0.555938005,6,2,4
20,118,1,1.18369627,6,4,4
20,119,1,0.867693663,5,4,4
20,120,1,0.828360796,4,0,4
20,121,1,0.710631609,2,1,4
20,122,1,0.727437019,3,0,4
20,123,1,0.801499844,1,0,4
20,124,1,0.693581104,4,2,4
20,125,1,0.670612812,4,1,4
20,126,1,0.551034212,2,0,4
20,127,1,0.588033199,3,0,4
20,128,1,0.556568861,1,0,4
20,129,1,0.521863222,1,0,4
20,130,1,0.792347193,2,4,4
20,131,1,0.571204185,5,0,4
20,132,1,0.614773989,6,0,4
20,133,1,0.925803661,2,4,4
20,134,1,0.645962238,3,0,4
20,135,1,0.653143644,5,0,4
20,136,1,0.537418604,6,0,4
20,137,1,0.774499178,5,4,4
20,138,1,0.925462723,1,4,4
20,139,1,1.224683046,4,6,4
20,140,1,0.728179693,4,0,4
20,141,1,0.596685171,3,4,4
20,142,1,0.670649767,6,0,4
20,143,1,0.774830818,1,4,4
20,144,1,0.567363501,6,0,4
20,145,1,0.480442047,2,0,4
20,146,1,0.549216747,5,4,4
20,147,1,0.87659502,4,5,4
20,148,1,0.842462301,3,4,4
20,149,1,0.439153671,2,0,4
20,150,1,0.592976332,4,0,4
20,151,1,0.495061159,2,0,4
20,152,1,0.472103119,4,0,4
20,153,1,0.817715645,5,6,4
20,154,1,0.763309956,3,4,4
20,155,1,0.898883343,1,3,4
20,156,1,0.500732422,3,0,4
20,157,1,0.79314971,2,4,4
20,158,1,0.842195511,6,4,4
20,159,1,0.464295864,3,4,4
20,160,1,0.749563932,6,4,4
20,161,1,0.732040882,1,0,4
20,162,1,0.65590477,4,0,4
20,163,1,0.662580729,4,3,4
20,164,1,0.687773943,3,5,4
20,165,1,0.506572723,2,0,4
20,166,1,1.783433199,5,0,4
20,167,1,0.626855373,5,0,4
20,168,1,0.536978483,5,0,4
20,169,1,0.635906935,6,0,4
20,170,1,0.773649216,4,0,4
20,171,1,0.784249306,3,4,4
20,172,1,1.033577681,1,4,4
20,173,1,0.607254744,1,0,4
20,174,1,0.597844839,6,4,4
20,175,1,0.536151886,2,4,4
20,176,1,0.638207674,1,4,4
20,177,1,0.58694768,5,4,4
20,178,1,0.550541639,6,2,4
20,179,1,0.527801037,6,4,4
20,180,1,0.706568241,3,0,4
20,181,1,0.460365295,6,4,4
20,182,0,0.502122164,4,0,4
20,183,1,0.449061155,5,0,4
20,184,1,0.685992002,5,6,4
20,185,1,0.985434294,3,5,4
20,186,1,0.617129087,3,0,4
20,187,1,0.647667885,1,0,4
20,188,1,0.56647563,3,0,4
20,189,1,0.546789885,3,4,4
20,190,1,0.86388731,4,3,4
20,191,1,0.571171999,3,4,4
20,192,1,0.734952927,2,0,4
20,193,0,0.490468979,6,0,4
20,194,1,0.885824203,2,1,4
20,195,1,0.664557934,1,3,4
20,196,1,0.534880161,2,0,4
20,197,1,0.808977127,5,4,4
20,198,1,0.54965353,4,0,4
20,199,1,0.491202831,2,0,4
20,200,1,0.644903183,6,0,4
20,201,0,0.476593733,1,0,4
20,202,1,0.554337978,5,4,4
20,203,1,0.918013573,1,0,4
20,204,1,0.703623533,4,0,4
20,205,1,1.000912905,4,5,4
20,206,1,0.552886963,3,0,4
20,207,1,0.555203676,2,4,4
20,208,1,0.44173193,5,0,4
20,209,1,0.513491869,4,1,4
20,210,1,0.518713713,4,6,4
20,211,1,0.789404869,2,4,4
20,212,1,0.672954798,5,4,4
20,213,1,0.526749849,3,0,4
20,214,1,0.416897774,5,0,4
20,215,1,0.912682772,1,4,4
20,216,1,0.457732916,1,0,4
20,217,1,0.429724932,6,0,4
20,218,1,0.683208704,5,0,4
20,219,0,0.526767015,2,0,4
20,220,1,0.550345898,6,0,4
20,221,1,0.794770956,3,4,4
20,222,1,0.509521961,2,0,4
20,223,1,0.491400242,4,0,4
20,224,1,0.608749866,6,4,4
20,225,1,0.620774984,3,4,4
20,226,1,0.521230221,2,4,4
20,227,1,0.744900942,6,2,4
20,228,1,0.593603849,6,0,4
20,229,1,0.586055756,3,4,4
20,230,1,0.555024147,5,0,4
20,231,1,0.720182896,6,4,4
20,232,1,0.665742874,6,4,4
20,233,1,0.440922976,2,4,4
20,234,1,0.849735975,1,0,4
20,235,1,0.531758308,1,4,4
20,236,1,0.485065222,3,0,4
20,237,1,0.499081135,4,2,4
20,238,1,0.756121874,4,0,4
20,239,1,0.650557995,1,4,4
20,240,1,0.483573675,1,4,4
20,241,1,0.475857019,2,0,4
20,242,1,0.430967808,6,4,4
20,243,1,0.574641466,6,0,4
20,244,1,0.720153093,3,4,4
20,245,0,0.543725252,4,5,4
20,246,1,0.572328329,2,0,4
20,247,1,0.495590687,1,0,4
20,248,1,0.594069719,2,0,4
20,249,0,0.455867767,1,4,4
20,250,0,0.4479146,4,2,4
20,251,1,0.564759731,2,4,4
20,252,1,0.544852018,1,4,4
20,253,1,0.666960955,3,4,4
20,254,1,0.652675152,3,0,4
20,255,1,0.404372931,6,0,4
20,256,1,0.596635818,5,4,4
20,257,1,0.57865572,4,0,4
20,258,1,0.842660666,5,4,4
20,259,0,0.53107214,1,3,4
20,260,1,0.554817438,3,4,4
20,261,1,0.504852772,1,0,4
20,262,1,0.591645718,1,0,4
20,263,1,0.544810772,5,0,4
20,264,1,0.669163227,4,6,4
20,265,1,0.587534666,4,0,4
20,266,1,0.481035233,2,1,4
20,267,1,0.534383059,4,1,4
20,268,1,0.703177691,4,3,4
20,269,1,0.47864604,5,0,4
20,270,1,0.513506651,4,0,4
20,271,1,0.69617033,1,0,4
20,272,1,0.56637907,3,0,4
20,273,1,0.546604872,3,4,4
20,274,1,0.418311834,3,0,4
20,275,1,0.81894207,2,4,4
20,276,1,0.453552008,2,4,4
20,277,1,0.856215477,5,4,4
20,278,1,0.688345194,5,6,4
20,279,1,0.565115929,3,5,4
20,280,1,0.600417852,6,4,4
20,281,1,0.472621202,6,4,4
20,282,1,0.432692051,2,0,4
20,283,1,0.661152124,4,0,4
20,284,1,0.676469326,6,0,4
20,285,1,0.546569109,5,0,4
20,286,1,0.638875961,3,0,4
20,287,1,0.827686548,4,0,4
20,288,1,0.671485662,1,4,4
20,289,1,0.44678688,1,4,4
20,290,1,0.443989754,3,4,4
20,291,1,0.546249866,6,0,4
20,292,1,0.368212938,3,0,4
20,293,1,0.553500414,5,0,4
20,294,1,0.555571795,5,0,4
20,295,1,0.447171688,6,4,4
20,296,1,0.459499121,2,4,4
20,297,1,0.394684553,6,0,4
20,298,1,0.733741045,2,0,4
20,299,1,0.471860647,6,2,4
20,300,1,0.540954828,1,0,4
20,301,1,0.678501844,3,5,4
20,302,1,0.498625517,6,0,4
20,303,1,1.697094679,6,2,4
20,304,1,0.648925304,5,0,4
20,305,1,0.498240709,1,0,4
20,306,1,0.683109999,4,2,4
20,307,1,0.711855888,4,3,4
20,308,1,0.582533598,2,0,4
20,309,1,0.628004789,1,4,4
20,310,1,0.476577044,1,0,4
20,311,1,0.540434122,6,4,4
20,312,1,0.574231863,3,0,4
20,313,0,0.462729931,2,0,4
20,314,1,0.529618263,2,1,4
20,315,1,0.723925114,2,4,4
20,316,1,0.672325373,3,4,4
20,317,1,0.417597055,2,0,4
20,318,1,0.523251534,6,0,4
20,319,0,0.673712015,3,4,4
20,320,1,0.482509851,2,4,4
20,321,0,0.446081161,5,4,4
20,322,1,0.498031616,1,4,4
20,323,1,0.556780815,5,0,4
20,324,1,0.557318926,6,4,4
20,325,0,0.594388247,4,5,4
20,326,1,0.581262112,5,4,4
20,327,1,0.484678268,5,0,4
20,328,1,0.848803759,5,4,4
20,329,1,0.630932093,4,0,4
20,330,1,0.489931822,6,4,4
20,331,1,0.598659039,3,0,4
20,332,1,0.500687838,1,0,4
20,333,1,0.497891903,1,0,4
20,334,1,0.435046673,2,4,4
20,335,0,0.407984495,2,0,4
20,336,1,0.503850698,3,4,4
20,337,1,0.687339783,4,6,4
20,338,1,0.534090996,1,4,4
20,339,1,0.477432966,6,0,4
20,340,1,0.496189117,5,0,4
20,341,0,0.498209953,3,0,4
20,342,1,0.657499075,3,0,4
20,343,0,0.49309063,3,4,4
20,344,1,0.639928102,1,3,4
20,345,1,0.588753939,4,0,4
20,346,1,0.529592752,3,0,4
20,347,1,0.906650305,4,1,4
20,348,1,0.779073954,6,4,4
20,349,1,0.56261301,3,4,4
20,350,1,0.457842827,6,0,4
20,351,1,0.51967597,4,0,4
20,352,0,0.428462982,2,0,4
20,353,1,0.929218292,5,0,4
20,354,1,0.758252382,4,0,4
20,355,1,0.473372936,5,6,4
20,356,1,0.549180984,1,4,4
20,357,1,0.556361675,2,4,4
20,358,1,0.678251028,1,0,4
20,359,1,0.587326765,4,0,4
20,360,1,0.650815248,6,0,4
21,1,1,2.804965258,5,0,3
21,2,1,1.67350173,2,0,3
21,3,1,2.194394827,4,3,3
21,4,1,2.764259815,3,4,3
21,5,1,1.828153372,2,3,3
21,6,1,2.874535084,5,3,3
21,7,1,1.960095882,2,0,3
21,8,1,0.955016851,2,0,3
21,9,1,1.371080875,2,3,3
21,10,1,3.273430586,5,6,3
21,11,1,2.851563931,3,1,3
21,12,1,1.765160799,6,3,3
21,13,1,1.532171726,1,0,3
21,14,1,2.573141813,2,3,3
21,15,1,3.730816841,5,3,3
21,16,1,3.745051146,1,3,3
21,17,1,1.778177261,4,3,3
21,18,1,1.383295059,5,3,3
21,19,1,1.252587318,5,3,3
21,20,1,2.436676741,6,3,3
21,21,1,1.926960468,1,3,3
21,22,1,1.617515087,4,0,3
21,23,1,2.04473114,1,3,3
21,24,1,1.29769516,5,0,3
21,25,1,1.397376537,3,0,3
21,26,1,1.400246859,1,0,3
21,27,1,1.73356843,6,0,3
21,28,1,2.053610563,4,0,3
21,29,1,1.560480833,4,3,3
21,30,1,1.223265409,4,0,3
21,31,1,2.45883584,2,3,3
21,32,1,1.446883678,4,0,3
21,33,1,0.829214811,6,0,3
21,34,1,0.732972622,5,0,3
21,35,1,1.007344723,1,3,3
21,36,1,0.774289846,6,0,3
21,37,1,0.968853951,3,0,3
21,38,1,1.975856543,4,0,3
21,39,1,1.407034159,1,0,3
21,40,1,1.463676691,1,5,3
21,41,1,0.979359865,1,0,3
21,42,1,1.236222744,6,2,3
21,43,1,2.3642869,4,3,3
21,44,1,1.632311821,6,0,3
21,45,1,1.156916857,3,0,3
21,46,1,2.54927206,3,0,3
21,47,1,1.262144327,6,3,3
21,48,1,1.235276699,3,0,3
21,49,1,1.618501663,2,4,3
21,50,1,0.899085522,4,1,3
21,51,1,0.626129627,1,0,3
21,52,0,0.837026119,3,5,3
21,53,0,2.79335618,3,6,3
21,54,1,2.772490263,5,0,3
21,55,1,3.696393013,3,2,3
21,56,1,1.534708261,5,0,3
21,57,1,3.496897697,2,0,3
21,58,1,1.485411406,6,0,3
21,59,1,2.286022425,2,0,3
21,60,1,5.490788221,6,3,3
21,61,1,3.690817833,3,0,3
21,62,1,2.466848612,4,0,3
21,63,1,2.079224586,3,4,3
21,64,1,2.565524101,6,0,3
21,65,1,1.777313232,2,0,3
21,66,1,1.033459902,6,0,3
21,67,1,1.648605347,2,3,3
21,68,1,1.83733654,3,0,3
21,69,1,1.730883598,5,0,3
21,70,1,1.237300873,1,5,3
21,71,1,3.973077297,3,0,3
21,72,0,1.474750519,1,3,3
21,73,1,6.095183372,6,2,3
21,74,1,3.27704978,1,3,3
21,75,1,4.430037022,3,6,3
21,76,1,4.058000803,5,3,3
21,77,1,1.881593704,5,3,3
21,78,1,1.166142464,6,3,3
21,79,1,0.8969028,1,0,3
21,80,1,1.485046148,4,1,3
21,81,1,1.509943724,2,3,3
21,82,1,2.12691927,6,0,3
21,83,1,2.790253401,4,3,3
21,84,1,3.23553443,5,6,3
21,85,1,1.350321054,3,1,3
21,86,1,2.404325247,3,5,3
21,87,1,1.167386293,4,3,3
21,88,1,1.724068165,5,0,3
21,89,1,1.393681049,1,0,3
21,90,1,3.619852066,6,0,3
21,91,1,0.946127892,5,0,3
21,92,1,1.338895082,6,3,3
21,93,1,1.078419924,3,0,3
21,94,1,1.037260056,4,0,3
21,95,1,2.398199081,2,3,3
21,96,1,0.955894709,3,0,3
21,97,1,0.868286133,2,0,3
21,98,1,1.514690161,2,3,3
21,99,1,1.53619647,1,3,3
21,100,1,1.005643845,2,0,3
21,101,1,0.786295652,1,0,3
21,102,1,1.112972975,2,0,3
21,103,1,1.191714287,5,3,3
21,104,1,1.361526728,5,3,3
21,105,1,1.548000097,4,3,3
21,106,1,0.92542696,6,0,3
21,107,1,0.796257496,4,0,3
21,108,1,1.224055052,4,3,3
21,109,1,0.971916437,1,0,3
21,110,1,1.284511089,6,3,3
21,111,1,1.008734941,5,0,3
21,112,1,0.82712698,5,0,3
21,113,1,2.347048044,4,0,3
21,114,1,1.54044652,3,2,3
21,115,1,1.055003881,1,0,3
21,116,1,1.015765429,1,3,3
21,117,1,1.497549057,2,4,3
21,118,1,1.316973448,4,0,3
21,119,1,1.163798332,6,3,3
21,120,1,0.823979855,2,0,3
21,121,1,1.300083637,4,0,3
21,122,1,1.52835989,5,0,3
21,123,1,1.079822063,1,3,3
21,124,1,1.00921464,5,0,3
21,125,1,0.860066891,1,3,3
21,126,1,1.272862911,2,4,3
21,127,1,1.469911098,2,3,3
21,128,1,0.763587475,2,0,3
21,129,1,1.234989643,4,3,3
21,130,1,1.677387953,1,0,3
21,131,1,1.151340008,4,1,3
21,132,1,2.678306818,2,3,3
21,133,1,1.010674477,4,0,3
21,134,1,0.77144289,6,0,3
21,135,1,3.480410814,2,3,3
21,136,1,1.220193386,2,0,3
21,137,1,0.846387386,3,6,3
21,138,1,0.844244242,6,0,3
21,139,1,1.143832922,3,1,3
21,140,1,0.90102458,5,3,3
21,141,1,0.999106884,1,3,3
21,142,1,0.926297188,5,6,3
21,143,1,1.040385962,5,3,3
21,144,1,1.390460014,3,4,3
21,145,1,0.652940035,5,0,3
21,146,1,0.960513592,3,0,3
21,147,1,2.047674894,3,2,3
21,148,1,1.337736368,3,0,3
21,149,1,1.230691671,3,0,3
21,150,1,1.385568857,2,0,3
21,151,1,1.039946079,2,0,3
21,152,1,1.019629955,4,0,3
21,153,1,1.576051712,4,3,3
21,154,1,1.372905731,4,3,3
21,155,1,1.231956005,5,3,3
21,156,1,1.10157299,2,3,3
21,157,1,1.289671898,4,3,3
21,158,1,1.332921743,4,0,3
21,159,1,0.836974621,6,3,3
21,160,1,1.216103315,5,0,3
21,161,1,1.322701931,5,3,3
21,162,1,3.053222418,3,0,3
21,163,1,2.473204851,1,0,3
21,164,1,2.732441664,6,2,3
21,165,1,0.866636992,6,0,3
21,166,1,0.672209024,6,3,3
21,167,1,3.216221809,1,3,3
21,168,1,1.26210022,1,5,3
21,169,1,1.799608946,3,0,3
21,170,1,1.748393059,1,0,3
21,171,1,0.850944281,6,0,3
21,172,1,1.494197845,1,0,3
21,173,1,0.809295416,1,0,3
21,174,1,1.86184001,6,3,3
21,175,1,1.602800608,6,3,3
21,176,1,1.868744135,4,0,3
21,177,1,1.670605898,3,5,3
21,178,1,2.040684223,2,0,3
21,179,1,0.768450975,6,0,3
21,180,1,1.139796019,5,0,3
21,181,1,0.891042471,1,0,3
21,182,1,1.956362963,4,0,3
21,183,1,1.129391193,6,0,3
21,184,1,1.464120865,3,6,3
21,185,1,0.904965639,1,3,3
21,186,1,0.917569876,3,0,3
21,187,1,1.158392906,2,4,3
21,188,1,1.139410734,4,0,3
21,189,1,2.560493708,5,3,3
21,190,1,1.026859999,1,3,3
21,191,1,1.067826748,6,0,3
21,192,1,1.883003235,6,2,3
21,193,1,0.727452517,1,0,3
21,194,1,2.154699802,2,3,3
21,195,1,0.900473118,4,3,3
21,196,1,0.942998648,1,3,3
21,197,1,0.806950569,3,5,3
21,198,1,1.018424273,5,0,3
21,199,1,2.115298986,3,2,3
21,200,1,0.751015902,4,0,3
21,201,1,0.728389263,2,0,3
21,202,1,0.778997183,5,0,3
21,203,1,0.780045986,2,0,3
21,204,1,1.412575006,2,0,3
21,205,1,0.708307981,3,0,3
21,206,1,0.855673075,4,0,3
21,207,1,1.61733675,1,3,3
21,208,1,1.454025745,4,3,3
21,209,1,0.976473093,5,3,3
21,210,1,1.252577066,6,0,3
21,211,1,1.403961182,6,3,3
21,212,1,0.801419973,3,0,3
21,213,1,0.858656168,4,0,3
21,214,1,1.091363907,1,0,3
21,215,1,0.908723831,2,3,3
21,216,1,0.966346741,1,0,3
21,217,1,1.057164192,5,0,3
21,218,1,0.998606443,6,0,3
21,219,1,0.931139708,2,3,3
21,220,1,0.880412102,1,0,3
21,221,1,1.26494813,2,0,3
21,222,1,1.127640724,3,1,3
21,223,1,0.821508884,6,0,3
21,224,1,1.017613649,2,3,3
21,225,1,0.988224268,5,0,3
21,226,1,0.76046586,6,3,3
21,227,1,0.77265501,3,0,3
21,228,1,0.671338797,2,0,3
21,229,1,2.558744907,4,3,3
21,230,1,0.744297981,6,3,3
21,231,1,0.85863328,1,5,3
21,232,1,1.455106974,4,1,3
21,233,1,0.721944571,5,3,3
21,234,1,1.683628321,5,0,3
21,235,1,1.318356037,3,4,3
21,236,1,1.848798037,5,6,3
21,237,1,0.614899874,4,3,3
21,238,1,0.798477173,6,3,3
21,239,1,1.977484703,3,0,3
21,240,1,1.237107038,5,3,3
21,241,1,2.703665972,6,3,3
21,242,1,1.236587048,6,0,3
21,243,1,0.670799732,1,3,3
21,244,1,4.615633011,3,1,3
21,245,1,1.122092247,3,5,3
21,246,1,4.461985111,2,3,3
21,247,1,0.857504606,1,0,3
21,248,1,0.7637043,6,0,3
21,249,1,1.03501296,6,3,3
21,250,1,1.069253683,5,0,3
21,251,1,0.960286379,2,0,3
21,252,1,0.878182888,4,0,3
21,253,1,1.467620134,3,6,3
21,254,1,1.043904781,1,5,3
21,255,1,0.726167917,3,0,3
21,256,1,1.202462196,5,0,3
21,257,1,3.125972986,1,3,3
21,258,1,1.688002586,6,3,3
21,259,1,1.047422647,6,0,3
21,260,1,1.184953928,4,3,3
21,261,1,0.764120102,1,3,3
21,262,1,0.829727888,1,0,3
21,263,1,1.279450417,3,2,3
21,264,1,1.058984995,5,0,3
21,265,1,1.021544695,3,0,3
21,266,1,0.685231447,1,0,3
21,267,1,0.974692106,4,0,3
21,268,1,2.031484604,2,3,3
21,269,1,0.655789137,2,3,3
21,270,1,1.793982744,6,2,3
21,271,1,1.306731224,4,0,3
21,272,1,2.354605198,4,3,3
21,273,1,2.639070749,4,1,3
21,274,1,1.474348783,3,0,3
21,275,1,0.658353806,1,0,3
21,276,1,0.890874624,2,0,3
21,277,1,0.582597017,5,0,3
21,278,1,2.213503838,4,3,3
21,279,1,0.811183691,4,0,3
21,280,1,0.7165308,6,0,3
21,281,1,1.317947626,5,3,3
21,282,1,0.969225407,2,0,3
21,283,1,1.440591335,3,4,3
21,284,1,0.758093119,2,0,3
21,285,1,1.245812178,1,3,3
21,286,1,0.9855721,5,3,3
21,287,1,0.954710007,3,0,3
21,288,1,0.794974327,4,0,3
21,289,1,2.304096937,5,6,3
21,290,1,0.611599684,6,0,3
21,291,1,1.212455273,5,3,3
21,292,1,0.998338223,5,3,3
21,293,1,1.641640186,2,3,3
21,294,1,0.760891676,6,3,3
21,295,1,0.867056608,2,0,3
21,296,1,1.513111591,2,4,3
21,297,1,3.21165204,4,3,3
21,298,1,1.444736481,5,0,3
21,299,1,0.782356024,1,0,3
21,300,1,1.622169018,3,0,3
21,301,1,3.37393117,1,3,3
21,302,1,1.095424652,2,3,3
21,303,1,0.607408762,2,4,3
21,304,1,0.766869307,3,6,3
21,305,1,1.886830807,5,3,3
21,306,1,0.770894527,1,0,3
21,307,1,2.256792068,5,3,3
21,308,1,1.650751114,1,3,3
21,309,1,1.790199041,3,0,3
21,310,1,1.212401152,6,0,3
21,311,1,0.990023136,3,0,3
21,312,1,1.103106022,4,0,3
21,313,1,1.351352215,3,1,3
21,314,1,0.928597212,2,0,3
21,315,1,1.513734579,2,0,3
21,316,1,1.130086899,1,3,3
21,317,1,0.993560791,4,3,3
21,318,1,1.324433565,3,2,3
21,319,1,0.640438557,5,0,3
21,320,1,2.439609766,6,2,3
21,321,1,0.789160967,5,3,3
21,322,1,0.798926353,1,0,3
21,323,1,0.939109802,4,0,3
21,324,1,0.65819478,5,3,3
21,325,1,1.190993071,4,3,3
21,326,1,1.259397984,3,4,3
21,327,1,1.212342024,3,5,3
21,328,1,1.438820362,6,3,3
21,329,1,0.646404505,1,0,3
21,330,1,0.675717115,6,0,3
21,331,1,1.040318012,2,0,3
21,332,1,0.679400921,5,0,3
21,333,1,0.74864316,1,0,3
21,334,1,0.890828371,4,0,3
21,335,1,2.85750246,4,3,3
21,336,1,0.69810605,5,0,3
21,337,1,0.71072793,6,0,3
21,338,1,0.717777014,2,0,3
21,339,1,0.661758184,6,0,3
21,340,1,1.550492764,1,5,3
21,341,1,1.345294952,5,6,3
21,342,1,1.50664115,6,3,3
21,343,1,1.124348164,6,0,3
21,344,1,0.84337306,3,0,3
21,345,1,0.787302017,2,3,3
21,346,1,1.040099144,2,0,3
21,347,1,0.768814564,1,0,3
21,348,1,0.809435368,5,0,3
21,349,1,1.025681734,6,3,3
21,350,1,1.166680813,5,0,3
21,351,1,0.614309072,6,3,3
21,352,1,1.499089718,4,3,3
21,353,1,1.321750879,4,0,3
21,354,1,1.23120594,3,0,3
21,355,1,0.602044821,4,0,3
21,356,1,0.852969646,2,3,3
21,357,1,1.12571764,2,3,3
21,358,1,1.492735147,4,1,3
21,359,1,0.619862318,1,3,3
21,360,1,0.805634737,3,0,3
22,1,0,0.866205692,3,2,5
22,2,1,2.48795104,2,0,5
22,3,1,1.861591816,2,6,5
22,4,0,1.349028587,4,5,5
22,5,0,0.823750973,6,5,5
22,6,1,2.902787209,5,4,5
22,7,1,1.550779581,1,5,5
22,8,1,1.178500891,2,5,5
22,9,0,1.503127813,4,3,5
22,10,1,1.611741781,1,0,5
22,11,1,2.719263792,3,5,5
22,12,1,1.095171928,1,0,5
22,13,1,1.009373665,5,0,5
22,14,1,0.860109091,3,5,5
22,15,0,1.041145325,6,0,5
22,16,1,1.325508833,6,5,5
22,17,1,0.944868088,2,5,5
22,18,1,1.434811831,3,5,5
22,19,1,1.00395298,3,0,5
22,20,1,1.520422697,5,2,5
22,21,1,0.806315899,2,0,5
22,22,1,0.80377841,6,0,5
22,23,1,2.201132536,5,3,5
22,24,1,2.139683723,2,0,5
22,25,0,1.580062151,1,0,5
22,26,1,2.966501951,6,1,5
22,27,1,0.987519741,4,0,5
22,28,1,1.767853022,3,5,5
22,29,1,1.919673681,2,0,5
22,30,1,1.436531305,3,0,5
22,31,1,3.131361961,1,5,5
22,32,1,0.737958908,4,5,5
22,33,1,0.960872889,6,0,5
22,34,1,1.853456736,1,5,5
22,35,1,1.335122108,4,0,5
22,36,1,1.589935064,2,0,5
22,37,1,0.924154043,5,0,5
22,38,1,0.993593931,3,0,5
22,39,1,2.139098167,6,0,5
22,40,0,0.981894732,5,6,5
22,41,0,1.423808813,5,1,5
22,42,1,2.149044037,1,5,5
22,43,1,2.233301401,1,5,5
22,44,1,1.613130093,6,0,5
22,45,1,2.060488939,3,0,5
22,46,1,0.928108692,5,0,5
22,47,0,0.767056227,2,5,5
22,48,1,1.688959837,4,0,5
22,49,1,1.118452311,4,5,5
22,50,1,1.63023591,6,5,5
22,51,1,1.910710812,5,0,5
22,52,1,1.602562428,1,0,5
22,53,1,1.621092319,2,5,5
22,54,1,1.207709074,1,0,5
22,55,1,1.584084988,4,5,5
22,56,1,1.008610487,4,0,5
22,57,1,0.833088636,5,0,5
22,58,1,2.116718769,6,5,5
22,59,1,0.982663155,3,0,5
22,60,1,0.951727867,4,0,5
22,61,1,1.070607424,1,0,5
22,62,1,0.99194169,1,0,5
22,63,1,1.091476679,2,0,5
22,64,1,1.011057854,3,0,5
22,65,1,1.18188715,1,5,5
22,66,1,1.357035875,4,0,5
22,67,1,2.029045582,6,1,5
22,68,1,0.833487988,5,2,5
22,69,1,1.037574768,6,0,5
22,70,0,0.896753788,2,5,5
22,71,1,2.676277161,4,0,5
22,72,1,0.922478914,5,0,5
22,73,1,0.826931,3,5,5
22,74,1,1.237916231,6,0,5
22,75,1,2.954314709,2,6,5
22,76,1,2.50214529,2,5,5
22,77,1,1.615616322,2,0,5
22,78,1,2.443501949,1,5,5
22,79,1,1.062944174,2,0,5
22,80,1,2.110213995,6,5,5
22,81,1,1.987326145,6,0,5
22,82,1,1.837792635,1,5,5
22,83,1,3.004198551,5,6,5
22,84,1,2.227008581,1,0,5
22,85,1,2.504652023,4,0,5
22,86,1,0.955983877,5,0,5
22,87,0,0.858433008,2,5,5
22,88,0,2.242524862,5,4,5
22,89,1,2.361653566,5,0,5
22,90,1,1.503003597,3,5,5
22,91,1,2.677456856,4,0,5
22,92,1,1.442572355,6,5,5
22,93,0,1.442037582,6,5,5
22,94,1,2.236114264,5,0,5
22,95,1,1.381105185,3,0,5
22,96,1,1.631266832,6,5,5
22,97,1,2.092096329,5,0,5
22,98,1,2.11472106,1,5,5
22,99,1,1.308920622,3,0,5
22,100,1,1.420812845,5,3,5
22,101,0,1.146612883,3,0,5
22,102,1,2.92662096,6,0,5
22,103,0,4.916982412,3,5,5
22,104,1,2.71030879,5,1,5
22,105,1,2.047633886,3,5,5
22,106,1,1.486030579,4,5,5
22,107,1,1.846640348,2,5,5
22,108,1,1.274525404,1,5,5
22,109,1,1.601656914,4,5,5
22,110,1,1.214912176,4,5,5
22,111,1,1.313263655,4,5,5
22,112,1,3.95554018,2,0,5
22,113,1,1.268634558,4,0,5
22,114,1,0.742935658,6,0,5
22,115,1,3.540066481,2,0,5
22,116,1,0.777805805,1,0,5
22,117,1,0.748575211,1,0,5
22,118,1,1.236431122,3,2,5
22,119,0,1.113609314,4,3,5
22,120,1,3.034483194,3,0,5
22,121,1,1.497339249,1,0,5
22,122,1,0.841356039,6,0,5
22,123,1,0.909268379,4,0,5
22,124,1,1.219456911,6,0,5
22,125,1,1.316934586,5,0,5
22,126,1,1.218359709,5,0,5
22,127,1,1.269735813,4,0,5
22,128,1,1.696352243,5,1,5
22,129,1,1.204108,6,0,5
22,130,1,1.653001785,6,5,5
22,131,1,1.316398859,2,5,5
22,132,1,1.102766991,6,0,5
22,133,1,1.210473776,2,0,5
22,134,1,2.087614775,3,5,5
22,135,1,1.623636723,3,0,5
22,136,1,1.033037663,5,4,5
22,137,1,1.137814045,5,0,5
22,138,1,1.412796736,4,5,5
22,139,1,1.214292526,1,5,5
22,140,0,2.011314392,5,0,5
22,141,1,1.604631901,2,0,5
22,142,1,1.111150742,2,0,5
22,143,1,1.048907757,1,0,5
22,144,1,1.387044191,5,2,5
22,145,1,1.594094753,3,5,5
22,146,0,1.500490665,4,3,5
22,147,0,1.143520355,2,0,5
22,148,1,3.36386323,6,1,5
22,149,1,1.340196133,6,0,5
22,150,1,1.735516787,6,5,5
22,151,1,1.040203333,4,0,5
22,152,1,1.224958658,3,2,5
22,153,0,1.179599524,5,3,5
22,154,1,1.569394827,2,5,5
22,155,1,1.346481323,3,5,5
22,156,1,1.139177084,6,5,5
22,157,1,1.063570976,3,0,5
22,158,1,0.774804592,3,0,5
22,159,1,0.840741873,1,5,5
22,160,1,1.173635244,4,5,5
22,161,1,0.925067902,4,5,5
22,162,1,0.844424725,2,5,5
22,163,1,0.8388381,1,0,5
22,164,0,0.846391916,4,0,5
22,165,0,0.708868027,3,5,5
22,166,1,1.502537251,3,0,5
22,167,1,1.856260777,5,6,5
22,168,1,0.862025261,4,5,5
22,169,1,1.135255098,6,5,5
22,170,1,0.883014202,4,0,5
22,171,1,1.212338924,1,5,5
22,172,1,1.515578032,1,0,5
22,173,1,1.142114401,3,0,5
22,174,1,0.969385862,1,0,5
22,175,1,0.705323219,2,5,5
22,176,1,0.722818136,5,0,5
22,177,1,1.678288221,2,6,5
22,178,1,0.984430313,2,0,5
22,179,1,0.988891602,1,5,5
22,180,1,0.993897915,1,5,5
22,181,1,1.479891777,2,0,5
22,182,0,1.080644846,4,5,5
22,183,0,2.166509867,2,6,5
22,184,1,3.990752697,6,5,5
22,185,1,1.194117546,6,0,5
22,186,1,1.308787823,1,5,5
22,187,1,0.920144081,1,0,5
22,188,1,0.876286268,6,0,5
22,189,1,0.835599661,1,5,5
22,190,1,0.874833345,4,3,5
22,191,1,0.880985975,1,5,5
22,192,1,1.405776739,5,1,5
22,193,1,0.998373508,2,0,5
22,194,1,1.336847782,3,2,5
22,195,1,1.419989586,5,6,5
22,196,1,1.131403208,6,0,5
22,197,1,1.125648737,3,0,5
22,198,1,0.997024059,1,5,5
22,199,1,0.944930315,4,5,5
22,200,1,0.992548943,6,1,5
22,201,1,0.932090759,3,0,5
22,202,1,0.881237745,2,5,5
22,203,1,1.856923819,2,0,5
22,204,1,0.792924166,5,0,5
22,205,1,1.577865839,5,2,5
22,206,1,1.728283644,3,0,5
22,207,1,0.897399902,1,0,5
22,208,1,1.286994219,5,0,5
22,209,1,1.840606928,6,5,5
22,210,1,1.340465784,1,5,5
22,211,1,1.460731983,6,5,5
22,212,1,1.357274771,2,5,5
22,213,1,0.712989807,4,0,5
22,214,1,0.905894995,1,0,5
22,215,1,0.837084055,3,5,5
22,216,1,1.191587925,2,5,5
22,217,1,1.036130905,3,0,5
22,218,1,0.798532963,1,0,5
22,219,1,0.791424751,4,0,5
22,220,1,0.790616035,1,0,5
22,221,1,1.278666735,5,4,5
22,222,1,1.610718489,2,0,5
22,223,1,1.121803999,6,0,5
22,224,1,1.068060398,5,0,5
22,225,1,1.034112692,5,0,5
22,226,1,1.429169655,3,5,5
22,227,0,2.389857054,6,5,5
22,228,1,2.219352007,5,3,5
22,229,1,0.895164013,4,0,5
22,230,1,1.145237207,4,5,5
22,231,1,0.897747993,6,0,5
22,232,1,2.657363176,4,0,5
22,233,1,1.806256771,3,0,5
22,234,1,1.042691708,3,5,5
22,235,1,0.866896391,3,5,5
22,236,1,1.033580303,2,0,5
22,237,1,1.163358688,5,0,5
22,238,1,0.984144926,4,0,5
22,239,1,1.18407917,2,5,5
22,240,0,1.249217749,4,5,5
22,241,1,0.911309719,2,0,5
22,242,1,1.149457455,6,5,5
22,243,1,0.832111835,2,0,5
22,244,1,1.402117968,5,1,5
22,245,1,0.779789686,4,0,5
22,246,1,1.079163074,4,5,5
22,247,1,1.008943796,2,5,5
22,248,1,0.861690998,2,5,5
22,249,1,1.072448969,1,0,5
22,250,1,1.194495201,5,3,5
22,251,1,1.096911669,4,0,5
22,252,1,1.05478096,5,0,5
22,253,1,1.548139095,5,6,5
22,254,1,1.431309938,5,0,5
22,255,1,0.760329008,3,0,5
22,256,1,1.096410751,5,0,5
22,257,0,0.980896711,3,5,5
22,258,0,1.896066427,2,5,5
22,259,1,1.591648102,1,0,5
22,260,1,1.082309246,5,0,5
22,261,1,1.879342556,4,5,5
22,262,1,1.068739414,6,5,5
22,263,1,1.075342417,6,0,5
22,264,1,0.709012985,3,0,5
22,265,1,1.5125103,4,0,5
22,266,1,1.829392433,6,1,5
22,267,1,0.783680916,2,0,5
22,268,1,1.32884264,6,0,5
22,269,1,1.90406394,6,5,5
22,270,1,0.946654797,6,0,5
22,271,1,1.269406557,3,5,5
22,272,1,1.698363304,1,5,5
22,273,1,1.038971663,6,0,5
22,274,1,1.043745756,2,0,5
22,275,1,3.003816843,2,0,5
22,276,1,1.877852917,1,5,5
22,277,1,0.771768808,1,0,5
22,278,1,1.018037081,4,3,5
22,279,1,0.738704443,1,0,5
22,280,1,2.843412638,6,5,5
22,281,1,1.100319386,4,5,5
22,282,1,1.168073654,6,0,5
22,283,1,0.937068939,5,4,5
22,284,1,0.876481533,2,5,5
22,285,0,1.651723862,5,2,5
22,286,1,0.929712296,3,0,5
22,287,1,1.01402688,1,0,5
22,288,1,0.804955006,5,0,5
22,289,1,0.857664824,4,0,5
22,290,1,0.858447313,4,0,5
22,291,1,0.75594759,1,5,5
22,292,1,0.748502016,1,5,5
22,293,1,0.84107089,3,0,5
22,294,1,1.814889193,4,5,5
22,295,1,0.810994864,3,5,5
22,296,1,1.043842316,3,0,5
22,297,1,0.781589746,3,2,5
22,298,1,1.261510611,3,5,5
22,299,1,1.068280935,2,6,5
22,300,1,0.929391146,1,5,5
22,301,1,0.904249907,4,0,5
22,302,1,0.814891338,2,0,5
22,303,1,0.908013105,1,5,5
22,304,1,0.798576832,6,5,5
22,305,1,0.801055908,1,0,5
22,306,1,0.773720026,6,0,5
22,307,1,0.968072176,2,5,5
22,308,1,0.788922071,4,5,5
22,309,1,0.733287811,3,0,5
22,310,1,1.047649384,6,0,5
22,311,1,0.845261097,1,5,5
22,312,1,0.717695475,1,0,5
22,313,1,0.963715076,4,0,5
22,314,1,0.816267252,3,5,5
22,315,1,1.052586079,3,2,5
22,316,1,1.589375734,6,1,5
22,317,1,0.979092836,2,0,5
22,318,1,1.663995266,5,0,5
22,319,1,0.870227337,3,0,5
22,320,1,1.922448874,5,3,5
22,321,1,0.918239832,1,5,5
22,322,1,0.748875141,3,0,5
22,323,1,0.711369038,1,0,5
22,324,1,0.942680836,5,6,5
22,325,1,1.312186241,6,5,5
22,326,1,0.743046999,3,5,5
22,327,1,0.985928774,5,0,5
22,328,1,0.840221882,4,5,5
22,329,1,0.734590054,5,2,5
22,330,1,1.754606962,2,0,5
22,331,1,0.875576973,5,0,5
22,332,1,0.741330147,3,5,5
22,333,1,1.27418375,2,5,5
22,334,1,1.446146727,6,0,5
22,335,1,0.778612852,2,0,5
22,336,1,0.892918825,4,5,5
22,337,1,0.977091312,5,4,5
22,338,1,0.976593733,1,5,5
22,339,1,1.281386137,2,6,5
22,340,1,0.957489967,5,0,5
22,341,1,0.668283224,1,0,5
22,342,1,0.954352617,6,5,5
22,343,1,0.761897802,3,0,5
22,344,1,0.667303085,2,5,5
22,345,1,0.783143759,3,0,5
22,346,1,0.877240419,4,0,5
22,347,1,1.10165143,4,0,5
22,348,1,1.104830742,1,5,5
22,349,1,0.832506657,5,0,5
22,350,1,1.782869577,5,1,5
22,351,1,0.844131231,2,0,5
22,352,1,0.794267654,2,5,5
22,353,1,1.028750658,6,0,5
22,354,1,0.973221779,4,3,5
22,355,1,2.94187212,1,0,5
22,356,1,1.02481699,6,5,5
22,357,1,1.671625614,3,5,5
22,358,1,0.856030703,4,0,5
22,359,0,1.499100924,4,5,5
22,360,1,0.951729298,6,0,5
23,1,1,1.246266603,1,0,6
23,2,1,2.016714811,4,5,6
23,3,1,1.518071651,4,3,6
23,4,1,1.44268465,3,0,6
23,5,1,1.462548733,4,5,6
23,6,1,0.998441935,4,0,6
23,7,1,1.026293993,4,0,6
23,8,1,1.422611475,2,0,6
23,9,1,1.357363701,5,1,6
23,10,1,1.064983368,6,0,6
23,11,1,1.561502457,3,0,6
23,12,1,1.798372746,1,5,6
23,13,1,1.526550055,5,0,6
23,14,1,1.333233356,3,0,6
23,15,1,1.142410755,4,0,6
23,16,1,1.615760565,5,4,6
23,17,1,1.342613935,4,0,6
23,18,1,2.133060932,1,5,6
23,19,1,2.484036684,3,5,6
23,20,1,1.443947077,6,1,6
23,21,1,1.366818905,1,5,6
23,22,1,1.870185852,6,5,6
23,23,1,2.711384296,5,6,6
23,24,1,2.434160709,2,5,6
23,25,1,4.542408466,4,5,6
23,26,1,1.740408897,6,5,6
23,27,1,2.536154509,5,0,6
23,28,1,0.880265474,1,0,6
23,29,1,1.734907389,3,5,6
23,30,1,1.554789543,2,0,6
23,31,1,1.878252506,3,0,6
23,32,1,2.078965664,1,0,6
23,33,1,1.523654938,2,6,6
23,34,1,2.105849266,6,0,6
23,35,1,2.273224592,3,0,6
23,36,1,1.334730864,1,5,6
23,37,1,1.033780575,4,0,6
23,38,1,2.819825888,6,5,6
23,39,1,2.181819439,3,2,6
23,40,1,1.704149723,5,0,6
23,41,1,1.625307798,2,5,6
23,42,1,1.680001259,1,5,6
23,43,1,1.279720783,2,0,6
23,44,1,1.068354607,3,5,6
23,45,1,1.125001192,4,5,6
23,46,1,1.000768423,3,5,6
23,47,1,0.827795506,5,0,6
23,48,1,1.366998196,1,0,6
23,49,1,0.867983818,6,0,6
23,50,1,1.138730526,5,0,6
23,51,1,1.883812904,6,5,6
23,52,1,1.418254614,2,5,6
23,53,1,1.412765741,2,5,6
23,54,1,1.15080595,6,0,6
23,55,1,1.253650904,6,0,6
23,56,1,1.13948369,2,0,6
23,57,1,0.878245354,2,0,6
23,58,1,1.535060406,5,2,6
23,59,1,1.49262619,5,3,6
23,60,1,1.051901579,1,0,6
23,61,1,2.376667023,2,5,6
23,62,1,1.773583651,6,5,6
23,63,1,2.099017382,2,5,6
23,64,1,2.419807911,1,5,6
23,65,1,1.600089788,2,6,6
23,66,1,1.603423357,2,0,6
23,67,1,1.616926908,3,5,6
23,68,1,2.509658813,3,2,6
23,69,1,1.4506917,3,0,6
23,70,1,1.408733845,2,5,6
23,71,1,1.641843319,5,4,6
23,72,1,0.298784018,6,5,6
23,73,1,3.583840132,1,0,6
23,74,1,1.698679209,3,5,6
23,75,1,0.630903482,6,0,6
23,76,1,2.633006811,6,5,6
23,77,1,1.64282918,4,0,6
23,78,1,1.416773558,5,0,6
23,79,1,2.169232368,2,0,6
23,80,1,0.95080471,6,5,6
23,81,1,1.377954721,1,0,6
23,82,1,1.597824574,5,2,6
23,83,1,1.556071758,3,0,6
23,84,1,1.289334774,6,0,6
23,85,1,0.882354736,2,0,6
23,86,1,2.364900351,2,5,6
23,87,1,1.180968523,1,5,6
23,88,1,1.025324583,3,5,6
23,89,1,1.545155525,3,0,6
23,90,1,1.140087843,1,5,6
23,91,1,0.98282218,2,0,6
23,92,1,1.998552799,5,3,6
23,93,1,2.187457561,5,6,6
23,94,1,0.065873384,1,5,6
23,95,1,3.039001942,6,0,6
23,96,1,1.839333296,5,0,6
23,97,1,4.495861769,4,0,6
23,98,1,3.912306547,3,0,6
23,99,1,2.316721678,6,0,6
23,100,1,1.282949686,6,1,6
23,101,1,1.647931814,6,0,6
23,102,1,1.136146784,2,0,6
23,103,1,0.910284042,5,0,6
23,104,1,0.921113014,1,0,6
23,105,1,0.98265481,5,0,6
23,106,1,1.297003984,4,3,6
23,107,1,1.011827707,3,5,6
23,108,1,1.546260118,1,0,6
23,109,1,0.959600687,4,5,6
23,110,1,1.10224247,5,0,6
23,111,1,1.510302544,4,5,6
23,112,1,0.816394091,4,0,6
23,113,1,1.132407665,4,0,6
23,114,1,1.322346449,3,0,6
23,115,1,1.213837862,4,0,6
23,116,1,1.365396738,5,1,6
23,117,1,1.097098827,4,5,6
23,118,1,1.339852571,1,0,6
23,119,1,0.763751984,4,5,6
23,120,1,1.059775352,1,5,6
23,121,1,1.218513489,4,0,6
23,122,1,1.980841637,4,0,6
23,123,1,1.757389784,6,0,6
23,124,1,1.098646402,6,0,6
23,125,1,0.961071014,1,0,6
23,126,1,1.23231864,4,0,6
23,127,1,0.963163137,6,5,6
23,128,1,1.22938776,2,6,6
23,129,1,1.183754683,3,0,6
23,130,1,1.428520679,1,0,6
23,131,1,0.97815156,1,5,6
23,132,0,1.047389984,1,5,6
23,133,1,0.8013556,3,0,6
23,134,1,2.004874706,1,5,6
23,135,1,1.07603097,5,0,6
23,136,1,1.597889662,5,1,6
23,137,1,0.850253582,3,5,6
23,138,1,0.86767292,2,5,6
23,139,1,3.641998768,5,3,6
23,140,1,1.164693594,4,5,6
23,141,1,1.276361942,3,5,6
23,142,1,0.746883154,3,5,6
23,143,1,0.654044867,6,1,6
23,144,1,0.766435862,1,5,6
23,145,1,0.831981897,4,0,6
23,146,1,1.353640079,1,0,6
23,147,1,0.712360859,3,0,6
23,148,1,8.423234224,2,5,6
23,149,1,4.036120892,6,0,6
23,150,1,3.103193521,2,0,6
23,151,1,2.362288475,2,0,6
23,152,1,2.510396004,5,6,6
23,153,1,1.261873245,5,0,6
23,154,1,4.933440685,6,5,6
23,155,1,1.628352642,3,0,6
23,156,1,1.218272209,2,0,6
23,157,1,3.038339853,3,0,6
23,158,1,2.607880116,6,0,6
23,159,1,1.374303579,4,5,6
23,160,1,1.771020412,3,5,6
23,161,1,1.401009321,1,0,6
23,162,1,0.798776865,4,0,6
23,163,1,1.101373196,1,0,6
23,164,1,3.171359777,5,4,6
23,165,1,2.308606386,5,0,6
23,166,0,2.255772352,5,0,6
23,167,1,1.918960571,2,5,6
23,168,1,0.985177994,6,5,6
23,169,1,3.802523851,4,5,6
23,170,1,0.980347633,1,5,6
23,171,1,2.946766138,6,0,6
23,172,1,2.211023331,3,2,6
23,173,1,1.747467518,2,0,6
23,174,1,1.830786705,5,2,6
23,175,1,0.921717167,6,5,6
23,176,1,1.481390715,5,0,6
23,177,1,1.111171961,4,5,6
23,178,1,1.499118567,2,5,6
23,179,1,1.067314863,2,0,6
23,180,1,1.228390932,4,3,6
23,181,1,1.095402956,4,0,6
23,182,1,1.28971982,1,5,6
23,183,1,1.618657827,6,0,6
23,184,1,1.995560169,3,0,6
23,185,1,1.308712244,6,0,6
23,186,1,1.656835794,4,5,6
23,187,1,2.055478334,6,1,6
23,188,1,1.947736979,5,0,6
23,189,1,1.490824938,5,6,6
23,190,1,0.910440207,6,5,6
23,191,1,2.412444592,5,3,6
23,192,1,0.8438344,4,0,6
23,193,1,1.020378351,2,6,6
23,194,1,1.088978291,4,5,6
23,195,1,0.936797857,5,1,6
23,196,1,0.735849857,1,0,6
23,197,1,0.930502176,3,0,6
23,198,1,0.994647741,4,0,6
23,199,1,1.162876844,6,0,6
23,200,1,1.005099535,2,5,6
23,201,1,1.116521597,1,0,6
23,202,1,1.067080498,2,5,6
23,203,1,1.158712387,5,0,6
23,204,1,0.875651836,1,5,6
23,205,1,1.495731354,6,5,6
23,206,1,1.028593302,4,0,6
23,207,1,2.906026363,4,5,6
23,208,1,1.227439404,6,5,6
23,209,1,1.063931942,6,0,6
23,210,1,1.050191641,2,5,6
23,211,1,1.542929173,3,5,6
23,212,1,0.960867643,6,5,6
23,213,1,0.902008772,1,5,6
23,214,1,0.78905654,1,0,6
23,215,1,1.30327487,1,0,6
23,216,1,1.056531906,3,5,6
23,217,1,1.062485695,3,0,6
23,218,1,0.939697266,4,0,6
23,219,1,0.867543936,1,0,6
23,220,1,0.837921381,2,0,6
23,221,1,0.892668962,3,0,6
23,222,1,1.351005793,5,2,6
23,223,1,0.823595762,6,0,6
23,224,1,0.904891729,1,5,6
23,225,1,1.372833967,4,3,6
23,226,1,1.197357416,5,4,6
23,227,1,1.227127552,3,5,6
23,228,1,0.861466408,3,2,6
23,229,1,0.802089453,5,0,6
23,230,1,0.814528704,2,0,6
23,231,1,0.759907722,3,0,6
23,232,1,0.716205597,2,0,6
23,233,1,2.127986193,4,5,6
23,234,1,0.994417667,2,0,6
23,235,1,1.804769993,2,0,6
23,236,1,0.90578866,5,0,6
23,237,1,1.096252918,5,0,6
23,238,1,1.316145658,1,5,6
23,239,1,0.641841888,3,5,6
23,240,1,1.425061941,2,5,6
23,241,1,1.4687047,6,0,6
23,242,1,3.386723042,2,5,6
23,243,1,1.303700686,2,0,6
23,244,1,1.314711332,6,0,6
23,245,1,1.47595191,4,5,6
23,246,1,0.800354719,3,0,6
23,247,1,1.057875633,3,5,6
23,248,1,0.975671053,4,5,6
23,249,1,2.236214161,2,5,6
23,250,1,1.175661325,4,0,6
23,251,1,1.297079563,5,6,6
23,252,1,1.029926777,3,5,6
23,253,1,0.989294052,5,4,6
23,254,1,1.283892393,3,5,6
23,255,1,1.268544674,1,0,6
23,256,1,0.964792728,5,1,6
23,257,1,1.115807056,4,3,6
23,258,1,0.93712163,5,0,6
23,259,1,0.714571476,3,0,6
23,260,1,0.94293499,4,0,6
23,261,1,1.275671721,4,0,6
23,262,1,1.361211538,5,0,6
23,263,1,1.989862919,6,5,6
23,264,1,1.273177385,4,0,6
23,265,1,0.959000587,4,5,6
23,266,1,1.52100873,2,6,6
23,267,1,1.027485609,6,5,6
23,268,1,1.695801973,1,5,6
23,269,1,1.371794939,1,5,6
23,270,1,1.066858292,4,0,6
23,271,1,1.192785025,1,0,6
23,272,1,1.012582541,5,2,6
23,273,1,1.048273802,2,0,6
23,274,1,1.216497183,1,5,6
23,275,1,2.009129524,3,0,6
23,276,1,1.111708164,5,0,6
23,277,1,0.852350712,4,5,6
23,278,1,1.51297164,6,5,6
23,279,1,1.40748167,1,5,6
23,280,1,1.017775774,1,5,6
23,281,1,1.222416878,2,5,6
23,282,1,1.962538958,5,0,6
23,283,1,1.228946447,6,1,6
23,284,1,1.184993029,3,5,6
23,285,1,1.334899187,6,5,6
23,286,1,0.722309113,2,0,6
23,287,1,1.148896694,1,0,6
23,288,1,1.08668685,2,5,6
23,289,1,0.645519495,3,0,6
23,290,1,0.757934809,1,0,6
23,291,1,0.845587492,6,0,6
23,292,1,0.933129549,3,2,6
23,293,1,0.807277679,6,0,6
23,294,1,0.919493675,5,3,6
23,295,1,1.029366732,1,0,6
23,296,1,0.955220461,3,0,6
23,297,1,0.906097651,2,0,6
23,298,1,0.753409624,6,0,6
23,299,1,1.592199802,5,0,6
23,300,1,1.029755831,2,0,6
23,301,1,1.351531506,1,5,6
23,302,1,1.147318363,5,0,6
23,303,1,1.072150469,3,0,6
23,304,1,1.221828461,1,0,6
23,305,1,1.678757429,6,1,6
23,306,1,1.524032831,3,0,6
23,307,1,0.880208015,2,0,6
23,308,1,1.059853554,1,0,6
23,309,1,1.081009388,6,0,6
23,310,1,0.831073284,2,5,6
23,311,1,1.302009821,5,1,6
23,312,1,1.188730717,3,5,6
23,313,1,2.600434065,4,3,6
23,314,1,0.913337946,5,0,6
23,315,1,0.848769665,1,0,6
23,316,1,0.922002316,5,0,6
23,317,1,0.947856426,1,5,6
23,318,1,1.115835667,3,5,6
23,319,1,0.831331968,6,5,6
23,320,1,1.180814981,3,0,6
23,321,1,0.90545702,2,0,6
23,322,1,1.363409996,3,0,6
23,323,1,2.160987377,5,3,6
23,324,1,1.103467703,1,5,6
23,325,1,1.249806166,1,5,6
23,326,1,1.172620773,2,0,6
23,327,1,1.054080009,4,0,6
23,328,1,0.75671792,6,0,6
23,329,1,0.854846478,4,5,6
23,330,1,0.905368328,3,0,6
23,331,1,0.948243141,6,5,6
23,332,1,1.661475658,3,5,6
23,333,1,1.23821044,3,5,6
23,334,1,2.249258041,5,6,6
23,335,1,1.242870331,5,2,6
23,336,1,2.006839991,1,5,6
23,337,1,1.595064878,5,0,6
23,338,1,0.857709885,4,0,6
23,339,1,2.387408733,1,0,6
23,340,1,1.07899785,4,0,6
23,341,1,0.972079754,6,0,6
23,342,1,0.815797806,2,5,6
23,343,1,0.868848801,4,5,6
23,344,1,0.847962141,5,0,6
23,345,1,1.10332346,1,0,6
23,346,1,0.873798847,2,5,6
23,347,1,0.954831362,6,0,6
23,348,1,1.443326712,4,0,6
23,349,1,0.936118603,2,0,6
23,350,0,1.15608716,3,2,6
23,351,1,0.712252617,4,0,6
23,352,1,0.980200291,5,4,6
23,353,1,1.516219854,2,0,6
23,354,1,1.158079624,4,5,6
23,355,1,1.764960766,4,5,6
23,356,1,1.033405542,2,5,6
23,357,1,0.822705507,6,0,6
23,358,1,1.472919703,2,6,6
23,359,1,0.808831692,6,5,6
23,360,1,1.450812817,6,5,6
24,1,1,1.119318008,1,0,6
24,2,1,0.857790947,5,6,6
24,3,1,0.958596468,2,5,6
24,4,1,0.915908098,2,0,6
24,5,1,0.6864326,6,5,6
24,6,1,0.985684872,4,0,6
24,7,1,0.988446474,6,0,6
24,8,1,1.07243371,6,0,6
24,9,1,0.753045321,2,0,6
24,10,1,1.110637903,1,5,6
24,11,1,0.821291685,2,6,6
24,12,1,0.926743746,4,3,6
24,13,1,0.715483665,5,0,6
24,14,1,0.886512756,6,0,6
24,15,1,0.795313835,3,5,6
24,16,1,0.757415295,3,5,6
24,17,1,0.979599237,4,5,6
24,18,1,0.818425894,5,3,6
24,19,1,1.314529657,5,1,6
24,20,1,1.19581008,4,0,6
24,21,1,0.952970743,6,0,6
24,22,1,0.83544755,3,0,6
24,23,1,0.67889595,1,0,6
24,24,1,0.687757492,1,5,6
24,25,1,0.836548328,4,5,6
24,26,1,0.760304689,2,5,6
24,27,1,0.776016951,2,5,6
24,28,1,0.789990664,3,2,6
24,29,1,0.758934021,5,0,6
24,30,1,0.894340515,1,0,6
24,31,1,0.973479748,6,0,6
24,32,1,0.894906759,4,5,6
24,33,1,0.812081814,3,5,6
24,34,1,0.782397747,5,2,6
24,35,1,0.82641077,6,5,6
24,36,1,0.830545187,2,5,6
24,37,1,0.601108789,1,5,6
24,38,1,0.706798792,3,0,6
24,39,1,1.549624205,1,0,6
24,40,1,1.202745438,4,5,6
24,41,1,0.880255699,2,0,6
24,42,1,0.891305923,2,0,6
24,43,1,0.982955694,4,0,6
24,44,1,0.711698532,3,0,6
24,45,1,1.147946119,6,5,6
24,46,1,0.82515645,4,0,6
24,47,1,0.805869579,4,0,6
24,48,1,1.001344681,6,1,6
24,49,1,1.203985691,6,5,6
24,50,1,0.771070719,2,0,6
24,51,1,0.776809692,1,5,6
24,52,1,0.835534811,5,0,6
24,53,1,0.63964057,1,5,6
24,54,1,1.467212915,3,0,6
24,55,1,0.828163862,5,4,6
24,56,1,0.618681431,1,0,6
24,57,1,0.769159794,3,5,6
24,58,1,0.637847424,5,0,6
24,59,1,1.372243643,5,0,6
24,60,1,0.927721262,3,0,6
24,61,1,1.441339493,6,5,6
24,62,1,0.903504848,2,0,6
24,63,1,0.896148682,6,1,6
24,64,1,0.663315773,3,0,6
24,65,1,0.814240456,4,0,6
24,66,1,0.819829464,2,0,6
24,67,1,0.850624561,1,5,6
24,68,1,0.803085089,3,5,6
24,69,1,0.775314569,6,0,6
24,70,1,1.229531527,6,5,6
24,71,1,0.865452766,4,5,6
24,72,1,1.191394329,1,5,6
24,73,1,0.738774776,4,0,6
24,74,1,0.957906485,1,0,6
24,75,1,0.785241842,3,0,6
24,76,1,0.822505474,3,5,6
24,77,1,0.778146982,6,0,6
24,78,1,0.771989822,4,0,6
24,79,1,0.969950914,5,3,6
24,80,1,0.743549585,6,5,6
24,81,1,0.841047287,2,5,6
24,82,1,1.045013905,5,0,6
24,83,1,0.887258768,3,5,6
24,84,1,1.667387009,5,6,6
24,85,1,2.024274111,5,2,6
24,86,1,1.053658247,3,2,6
24,87,1,0.855885983,2,5,6
24,88,1,0.820517302,5,0,6
24,89,1,0.828977823,1,0,6
24,90,1,0.992990732,4,5,6
24,91,1,0.720379114,6,5,6
24,92,1,0.580888748,6,0,6
24,93,1,0.756848574,3,0,6
24,94,1,0.832346678,5,0,6
24,95,1,0.620708466,2,5,6
24,96,1,0.621468067,5,0,6
24,97,1,0.655103207,1,0,6
24,98,1,0.592314959,4,0,6
24,99,1,0.674507856,1,0,6
24,100,1,0.770345688,4,5,6
24,101,1,0.685605049,4,3,6
24,102,1,0.571583509,2,0,6
24,103,1,0.723287821,6,0,6
24,104,1,0.723740339,3,0,6
24,105,1,0.574145079,2,0,6
24,106,1,0.427713394,3,0,6
24,107,1,0.706666231,5,0,6
24,108,1,0.544080496,1,5,6
24,109,1,0.716183901,1,5,6
24,110,1,0.736612558,4,0,6
24,111,1,0.705625534,3,5,6
24,112,1,0.818300486,5,4,6
24,113,1,0.833301783,2,5,6
24,114,1,0.669576645,1,5,6
24,115,1,0.888187647,2,0,6
24,116,1,1.171181679,6,0,6
24,117,1,1.882743835,2,6,6
24,118,1,1.032127142,4,5,6
24,119,1,1.001063824,5,1,6
24,120,1,0.738153934,1,0,6
24,121,1,0.682348728,4,0,6
24,122,1,0.632899284,1,5,6
24,123,1,1.082337618,1,0,6
24,124,1,0.846853018,6,0,6
24,125,1,0.834428072,4,5,6
24,126,1,0.623138905,4,5,6
24,127,1,0.742197514,2,6,6
24,128,1,0.75339365,5,3,6
24,129,1,0.658432722,2,0,6
24,130,1,0.644248724,1,0,6
24,131,1,0.761528969,5,0,6
24,132,1,0.543424129,2,0,6
24,133,1,0.69549799,3,5,6
24,134,1,0.627593994,6,5,6
24,135,1,0.675122738,6,0,6
24,136,1,0.576622725,4,0,6
24,137,1,0.787022591,2,5,6
24,138,1,0.659286499,1,5,6
24,139,1,0.741528988,3,0,6
24,140,1,0.638654232,5,0,6
24,141,1,0.662661791,4,0,6
24,142,1,0.678138971,2,5,6
24,143,0,0.443361521,3,0,6
24,144,1,0.875797749,4,0,6
24,145,1,0.941563845,4,0,6
24,146,1,0.754232168,2,0,6
24,147,1,0.691518068,1,5,6
24,148,1,1.404299736,4,3,6
24,149,1,1.487758875,2,5,6
24,150,1,0.962135553,5,0,6
24,151,1,1.143175364,6,5,6
24,152,1,0.625384808,6,5,6
24,153,1,1.176673174,5,1,6
24,154,1,0.710765839,2,5,6
24,155,1,0.673001766,5,4,6
24,156,1,0.637100458,6,5,6
24,157,1,0.615782976,1,5,6
24,158,1,0.923679113,3,5,6
24,159,1,1.074836969,6,0,6
24,160,1,0.662153244,1,0,6
24,161,1,0.962776661,5,6,6
24,162,1,1.806565523,5,0,6
24,163,1,0.957419634,4,5,6
24,164,1,0.829746485,6,0,6
24,165,1,2.200401068,2,0,6
24,166,1,0.827640533,6,1,6
24,167,1,0.897264719,5,0,6
24,168,1,0.600827694,2,0,6
24,169,1,0.868381739,5,2,6
24,170,1,0.897696733,4,5,6
24,171,1,0.976786852,3,0,6
24,172,1,0.625618219,3,0,6
24,173,1,1.159900427,3,2,6
24,174,1,0.907689571,3,5,6
24,175,1,0.738253593,6,0,6
24,176,1,2.619567633,3,5,6
24,177,1,0.795245886,1,0,6
24,178,1,0.902525425,1,0,6
24,179,1,1.280549526,3,0,6
24,180,1,0.775005579,1,5,6
24,181,1,0.792729139,5,0,6
24,182,1,0.87694478,6,5,6
24,183,1,1.081532001,5,3,6
24,184,1,0.700872898,6,5,6
24,185,1,0.918618679,3,2,6
24,186,1,0.638692856,5,1,6
24,187,1,0.593011141,1,0,6
24,188,1,1.361025333,2,5,6
24,189,1,1.64951086,5,0,6
24,190,1,1.036906719,6,5,6
24,191,0,1.525064468,3,5,6
24,192,1,1.952346325,4,5,6
24,193,1,0.729406118,2,0,6
24,194,1,0.829402924,5,0,6
24,195,1,1.188560724,4,5,6
24,196,1,0.872583151,5,6,6
24,197,1,0.823909998,4,0,6
24,198,1,0.803046942,4,0,6
24,199,1,0.787200928,1,0,6
24,200,1,1.004630804,6,0,6
24,201,1,0.647043943,2,6,6
24,202,1,0.964504004,3,5,6
24,203,1,0.66016078,5,0,6
24,204,1,0.607753992,1,0,6
24,205,1,1.228662252,4,5,6
24,206,1,0.882674932,1,5,6
24,207,1,0.956503868,6,0,6
24,208,1,0.909067631,2,5,6
24,209,1,0.719941854,1,0,6
24,210,1,1.086304903,2,5,6
24,211,1,0.680050373,3,0,6
24,212,1,1.084117889,6,1,6
24,213,1,0.928055763,4,5,6
24,214,1,0.832243919,4,0,6
24,215,1,0.781305075,1,5,6
24,216,1,1.015964746,5,2,6
24,217,1,1.802852154,6,0,6
24,218,1,1.465928078,6,0,6
24,219,1,1.299019814,3,0,6
24,220,1,0.829528809,2,0,6
24,221,1,0.965338707,1,5,6
24,222,1,0.771190882,3,0,6
24,223,1,0.690496922,5,4,6
24,224,1,0.618638992,2,0,6
24,225,1,1.625554323,1,5,6
24,226,1,0.899790049,2,0,6
24,227,1,0.902015924,3,5,6
24,228,1,0.960099697,1,5,6
24,229,1,0.762644291,4,0,6
24,230,1,0.94873786,4,0,6
24,231,1,0.795886755,3,0,6
24,232,1,0.923332214,2,5,6
24,233,1,0.599002361,5,0,6
24,234,1,0.891427755,3,5,6
24,235,1,0.924299955,4,3,6
24,236,1,0.892314672,6,0,6
24,237,1,0.807555914,3,0,6
24,238,1,0.729802847,2,0,6
24,239,1,0.713715792,1,0,6
24,240,0,0.739629984,6,5,6
24,241,1,0.732590437,3,0,6
24,242,1,0.773297787,5,0,6
24,243,1,0.69733572,6,0,6
24,244,1,0.979739428,1,5,6
24,245,1,0.745787621,6,5,6
24,246,1,0.763291597,3,0,6
24,247,1,0.608576298,5,0,6
24,248,1,0.714228392,2,5,6
24,249,1,0.766195536,2,5,6
24,250,1,0.876968622,6,5,6
24,251,1,0.873475313,2,0,6
24,252,1,1.102244854,6,1,6
24,253,1,1.103164673,4,3,6
24,254,1,0.931283474,5,2,6
24,255,1,0.700170517,5,0,6
24,256,1,1.502928972,5,0,6
24,257,1,0.910804272,4,5,6
24,258,1,1.018908978,4,0,6
24,259,1,0.827422619,1,5,6
24,260,1,1.178849459,5,1,6
24,261,1,0.827856064,2,0,6
24,262,1,1.017367363,3,0,6
24,263,1,0.682772398,3,0,6
24,264,1,0.697136402,1,5,6
24,265,1,0.538709879,1,5,6
24,266,1,0.602982521,1,0,6
24,267,1,1.000992537,5,6,6
24,268,1,0.892676353,3,2,6
24,269,1,0.745429754,6,5,6
24,270,1,0.538990021,3,5,6
24,271,1,0.530973434,1,0,6
24,272,1,1.085497856,6,5,6
24,273,1,0.774863958,6,0,6
24,274,1,1.02086854,5,3,6
24,275,1,0.996694326,4,5,6
24,276,1,0.673597097,3,0,6
24,277,1,0.703207016,5,4,6
24,278,1,0.599873781,4,0,6
24,279,1,0.70712018,2,0,6
24,280,1,0.835264921,4,5,6
24,281,1,0.60462141,1,0,6
24,282,1,0.699633837,1,0,6
24,283,0,0.822143555,1,5,6
24,284,1,1.428531885,4,0,6
24,285,1,1.188033819,4,5,6
24,286,1,0.729324579,3,5,6
24,287,1,1.2016747,2,0,6
24,288,1,0.729143381,2,0,6
24,289,1,0.908389091,6,0,6
24,290,1,0.875482798,5,0,6
24,291,1,0.830040216,3,5,6
24,292,1,0.785629988,1,0,6
24,293,1,0.733273983,4,0,6
24,294,1,0.937521458,4,0,6
24,295,1,1.672609091,2,5,6
24,296,1,1.799145937,2,5,6
24,297,1,0.796949387,2,6,6
24,298,1,0.859175444,3,5,6
24,299,1,0.659948587,6,0,6
24,300,1,0.572305679,6,0,6
24,301,1,1.067555189,5,0,6
24,302,1,1.014172792,4,5,6
24,303,1,1.181197643,6,0,6
24,304,1,0.744965553,3,5,6
24,305,1,0.772641659,4,0,6
24,306,1,0.973173857,5,6,6
24,307,1,0.832440615,4,0,6
24,308,1,0.856077671,5,2,6
24,309,1,0.663658619,1,5,6
24,310,1,0.74459362,3,5,6
24,311,1,0.671859503,2,6,6
24,312,1,0.622806549,5,4,6
24,313,1,0.68333292,6,1,6
24,314,1,0.757693291,4,0,6
24,315,1,0.683040857,6,0,6
24,316,1,0.59709692,2,0,6
24,317,1,0.799554825,5,1,6
24,318,1,0.616903782,6,0,6
24,319,1,0.793142796,4,5,6
24,320,1,0.681985617,1,0,6
24,321,1,1.078409195,3,0,6
24,322,1,1.100967407,1,0,6
24,323,1,0.79343152,3,2,6
24,324,1,1.247942924,4,0,6
24,325,1,0.680370569,1,0,6
24,326,1,0.784660578,3,0,6
24,327,1,1.178909779,4,3,6
24,328,1,0.853425741,5,3,6
24,329,1,0.951369286,2,5,6
24,330,1,0.703732014,2,0,6
24,331,1,0.775809765,2,0,6
24,332,1,0.814830542,1,5,6
24,333,1,0.840753555,3,5,6
24,334,1,0.699968576,3,0,6
24,335,1,0.842480421,3,0,6
24,336,1,0.870308876,6,5,6
24,337,1,0.545491457,1,5,6
24,338,1,0.822888613,6,0,6
24,339,1,0.508188248,2,0,6
24,340,1,0.73359704,3,0,6
24,341,1,0.68972683,6,5,6
24,342,1,0.681994677,6,5,6
24,343,1,0.591211796,5,0,6
24,344,1,0.577863693,3,5,6
24,345,1,0.613592625,5,0,6
24,346,1,0.78371954,4,5,6
24,347,1,0.600082874,6,0,6
24,348,1,0.720311403,4,0,6
24,349,1,0.580691576,5,0,6
24,350,1,0.709417343,4,5,6
24,351,1,0.970700741,6,5,6
24,352,1,0.756153822,5,0,6
24,353,1,0.878765583,2,5,6
24,354,1,0.672697783,1,0,6
24,355,1,0.648352146,1,0,6
24,356,1,1.135845423,2,5,6
24,357,1,0.928652287,2,0,6
24,358,1,0.544141769,2,5,6
24,359,1,0.781550407,1,5,6
24,360,1,0.725415707,1,5,6
25,1,1,1.734910727,4,2,2
25,2,1,1.404460907,3,2,2
25,3,1,1.305839539,5,2,2
25,4,1,1.068287849,3,0,2
25,5,1,0.889426947,3,0,2
25,6,1,1.223943472,6,0,2
25,7,1,1.235711575,1,2,2
25,8,1,1.348240852,3,2,2
25,9,1,1.892233372,2,5,2
25,10,1,1.041556358,1,0,2
25,11,1,1.754888535,6,3,2
25,12,1,1.312709093,5,6,2
25,13,1,1.593962908,5,2,2
25,14,1,1.237091541,1,0,2
25,15,1,1.356832504,1,2,2
25,16,1,2.166460752,2,0,2
25,17,1,1.207025766,5,2,2
25,18,1,1.123197794,2,1,2
25,19,1,1.234277725,6,0,2
25,20,1,1.669322729,4,0,2
25,21,1,1.821237803,3,0,2
25,22,1,1.548368216,4,1,2
25,23,1,1.601110458,6,0,2
25,24,1,1.196931124,2,0,2
25,25,1,1.281794786,2,0,2
25,26,1,0.976111412,5,0,2
25,27,1,1.821354866,1,5,2
25,28,1,1.047523499,6,2,2
25,29,1,1.801049709,5,0,2
25,30,1,1.2039361,4,0,2
25,31,1,1.982553482,4,2,2
25,32,1,1.051766157,4,0,2
25,33,1,1.059615612,5,2,2
25,34,1,1.180775642,5,0,2
25,35,1,1.240378141,2,4,2
25,36,1,1.154615879,3,0,2
25,37,1,1.411436081,2,0,2
25,38,1,1.053833961,4,0,2
25,39,1,1.071462631,4,2,2
25,40,1,1.255865097,1,2,2
25,41,1,1.504081726,1,2,2
25,42,1,1.191941738,3,0,2
25,43,1,1.215219975,1,0,2
25,44,1,0.996089697,6,0,2
25,45,1,1.333779573,6,2,2
25,46,1,1.223380327,1,0,2
25,47,1,1.514970064,3,2,2
25,48,1,1.75651288,3,2,2
25,49,1,1.039083719,4,0,2
25,50,1,1.187212706,6,2,2
25,51,1,1.817528009,4,2,2
25,52,1,1.308655262,3,4,2
25,53,1,0.951401949,6,0,2
25,54,1,0.987259626,2,0,2
25,55,1,0.846511602,1,0,2
25,56,1,1.02436614,2,3,2
25,57,1,0.785078049,5,0,2
25,58,1,1.05482173,2,6,2
25,59,1,1.010908842,6,2,2
25,60,1,0.853348732,5,0,2
25,61,1,2.246297121,1,2,2
25,62,1,1.331210375,3,0,2
25,63,1,1.951724768,2,3,2
25,64,1,2.821732998,6,2,2
25,65,1,1.146472454,6,2,2
25,66,1,1.041193247,5,2,2
25,67,1,1.078907967,1,2,2
25,68,1,1.829500437,2,5,2
25,69,1,1.605947495,1,0,2
25,70,1,1.332387686,1,0,2
25,71,1,0.851652622,2,0,2
25,72,1,0.974352121,5,0,2
25,73,1,1.22065258,5,6,2
25,74,1,1.04503274,1,0,2
25,75,0,1.364674807,1,2,2
25,76,1,2.027280569,4,2,2
25,77,1,1.561988831,4,0,2
25,78,1,0.729470015,4,0,2
25,79,1,1.46919179,3,2,2
25,80,1,0.960454702,5,0,2
25,81,1,1.769313812,1,2,2
25,82,1,0.833052158,4,0,2
25,83,1,1.137573004,4,0,2
25,84,0,0.836981773,1,5,2
25,85,1,3.682717323,6,0,2
25,86,1,1.442534447,3,0,2
25,87,1,1.597628593,3,4,2
25,88,1,1.330617189,5,2,2
25,89,1,1.094859838,2,0,2
25,90,1,1.037410498,1,0,2
25,91,1,1.391881466,1,0,2
25,92,1,0.93632555,6,0,2
25,93,1,1.298900604,5,0,2
25,94,1,1.327176571,3,2,2
25,95,1,1.34814167,4,2,2
25,96,1,0.935703754,6,3,2
25,97,1,1.070261955,4,0,2
25,98,1,1.636834145,3,0,2
25,99,1,0.959131241,3,0,2
25,100,1,1.282609463,2,1,2
25,101,1,1.166798592,3,0,2
25,102,1,0.917526007,5,2,2
25,103,1,1.058495045,2,0,2
25,104,1,1.620182514,5,0,2
25,105,1,1.181442499,6,0,2
25,106,1,1.070841789,4,2,2
25,107,1,0.871641397,6,0,2
25,108,1,2.764999866,6,2,2
25,109,1,1.201046467,6,0,2
25,110,1,0.933576584,2,4,2
25,111,1,1.072975636,5,0,2
25,112,1,0.766914606,2,0,2
25,113,1,0.990122557,2,6,2
25,114,1,1.197851419,5,2,2
25,115,1,1.541303635,6,2,2
25,116,1,1.294970512,3,2,2
25,117,1,0.793060303,2,0,2
25,118,1,1.015717745,4,2,2
25,119,1,1.12155056,3,2,2
25,120,1,1.167666674,4,1,2
25,121,0,1.311689138,2,0,2
25,122,1,0.936992645,6,2,2
25,123,1,1.056250572,5,2,2
25,124,1,1.076921463,2,1,2
25,125,1,2.024463892,1,2,2
25,126,1,0.813210487,5,0,2
25,127,1,1.924922228,4,0,2
25,128,0,1.29327178,2,3,2
25,129,1,2.570441723,4,2,2
25,130,1,1.191369772,3,4,2
25,131,1,0.85914588,4,0,2
25,132,1,0.796383619,3,0,2
25,133,1,0.843911648,6,0,2
25,134,1,0.740078449,5,2,2
25,135,1,2.572528601,5,0,2
25,136,1,1.228297472,2,0,2
25,137,1,1.82830739,4,2,2
25,138,1,0.902283669,4,0,2
25,139,0,1.140394926,3,2,2
25,140,1,3.317595482,4,2,2
25,141,1,1.658903122,1,2,2
25,142,1,1.93576622,1,2,2
25,143,1,0.98971653,6,0,2
25,144,1,1.784781218,1,2,2
25,145,1,1.97842288,5,0,2
25,146,1,1.079482079,2,0,2
25,147,1,1.118816614,4,2,2
25,148,1,1.645442724,1,0,2
25,149,1,1.543913603,3,2,2
25,150,1,1.236569643,4,0,2
25,151,1,0.996310949,4,1,2
25,152,1,1.704561234,6,2,2
25,153,1,1.487652779,5,2,2
25,154,1,1.432790995,6,0,2
25,155,1,1.297457695,2,4,2
25,156,1,0.844590664,3,0,2
25,157,1,2.693988562,1,0,2
25,158,1,1.053451777,6,0,2
25,159,1,1.591210604,3,2,2
25,160,1,1.259534836,2,0,2
25,161,1,0.920599222,6,2,2
