,ID,acc,RT,loc1,loc2,loc3,loc4,loc5,loc6,response,trial_color,trial_type,target_loc,distractor_loc,high_prob,relative_hp_dist
0,11,100,1.60697341,5,7,7,3,5,5,101,101,101,loc4,,1,10.0
1,11,100,1.4040710930000002,6,6,5,4,8,8,101,102,101,loc4,loc3,1,2.0
2,11,100,1.67341876,5,8,6,8,4,6,101,102,101,loc5,loc1,1,0.0
3,11,100,1.5031623840000001,2,1,3,7,1,3,101,101,102,loc4,loc1,1,0.0
4,11,100,1.4563043119999999,5,3,1,3,3,1,102,101,102,loc1,,1,10.0
5,11,0,0.0,6,7,5,5,7,3,101,101,101,loc6,loc1,1,0.0
6,11,100,1.426646471,7,1,3,3,1,1,101,101,102,loc1,,1,10.0
7,11,100,1.174494267,8,5,1,7,7,5,102,101,101,loc3,loc1,1,0.0
8,11,100,1.65708518,1,4,4,2,6,4,102,102,102,loc5,loc1,1,0.0
9,11,100,1.912321329,4,4,4,2,6,2,102,102,102,loc5,,1,10.0
10,11,100,1.804723024,2,1,3,5,3,3,102,101,102,loc4,loc1,1,0.0
11,11,100,1.3978476519999998,5,7,5,1,7,7,102,101,101,loc4,,1,10.0
12,11,100,1.423085451,8,6,8,8,6,2,102,102,101,loc6,,1,10.0
13,11,100,1.4030058380000001,4,3,3,5,1,1,102,101,102,loc4,loc1,1,0.0
14,11,100,1.588299036,8,5,3,7,5,5,101,101,101,loc3,loc1,1,0.0
15,11,100,1.7260422709999999,8,6,2,6,8,8,102,102,101,loc3,,1,10.0
16,11,100,1.402521133,5,5,7,7,3,5,101,101,101,loc5,,1,10.0
17,11,100,1.651082277,2,3,3,1,3,5,102,101,102,loc6,loc1,1,0.0
18,11,0,0.0,7,2,8,6,8,6,102,102,101,loc2,loc1,1,0.0
19,11,100,1.321937323,7,3,5,5,7,5,101,101,101,loc2,,1,10.0
20,11,100,1.20988512,6,8,4,6,8,6,101,102,101,loc3,,1,10.0
21,11,0,1.979255676,4,6,5,6,8,8,101,102,101,loc1,loc3,1,2.0
22,11,100,1.6530406480000002,3,2,4,2,2,8,101,102,102,loc6,loc1,1,0.0
23,11,0,0.0,1,3,1,1,3,7,101,101,102,loc6,,1,10.0
24,11,100,1.067218542,2,4,2,4,6,4,102,102,102,loc5,,1,10.0
25,11,100,1.2099542620000001,8,8,6,8,6,2,102,102,101,loc6,,1,10.0
26,11,100,1.530548096,4,1,1,7,3,1,101,101,102,loc4,loc1,1,0.0
27,11,100,1.4470489030000002,5,7,5,1,7,7,102,101,101,loc4,,1,10.0
28,11,0,0.0,6,4,4,1,2,4,102,102,102,loc1,loc4,1,3.0
29,11,100,1.5853393080000002,4,6,2,2,4,4,102,102,102,loc2,,1,10.0
30,11,100,1.371227264,3,3,5,3,2,1,102,101,102,loc3,loc5,1,2.0
31,11,100,1.101817131,4,2,2,4,8,2,101,102,102,loc5,,1,10.0
32,11,100,1.4190816880000001,1,3,1,5,3,3,102,101,102,loc4,,1,10.0
33,11,100,1.282940149,7,7,5,7,5,1,102,101,101,loc6,,1,10.0
34,11,100,1.79357028,8,4,2,2,4,2,101,102,102,loc1,,1,10.0
35,11,100,1.570726871,8,5,3,7,5,5,101,101,101,loc3,loc1,1,0.0
36,11,100,1.5171933169999998,7,8,2,8,6,6,102,102,101,loc3,loc1,1,0.0
37,11,100,1.609717369,8,5,6,8,8,2,102,102,101,loc6,loc2,1,1.0
38,11,100,1.4102509019999998,7,5,1,7,7,5,102,101,101,loc3,,1,10.0
39,11,100,1.055400133,8,6,6,6,8,4,101,102,101,loc6,,1,10.0
40,11,100,1.278076649,3,1,1,3,5,4,102,101,102,loc5,loc6,1,1.0
41,11,0,1.5646390909999999,3,7,5,5,5,7,101,101,101,loc1,,1,10.0
42,11,100,1.319188833,8,6,8,4,6,6,101,102,101,loc4,,1,10.0
43,11,100,1.895783424,8,4,2,2,3,2,101,102,102,loc1,loc5,1,2.0
44,11,0,0.0,6,1,7,7,5,7,102,101,101,loc2,loc1,1,0.0
45,11,100,1.4279441830000001,3,2,4,4,6,2,102,102,102,loc5,loc1,1,0.0
46,11,100,1.112571716,8,4,8,5,6,6,101,102,101,loc2,loc4,1,3.0
47,11,0,0.0,1,7,5,7,5,8,102,101,101,loc1,loc6,1,1.0
48,11,100,0.896262407,6,4,8,6,8,6,101,102,101,loc2,,1,10.0
49,11,100,1.585665464,3,2,2,4,2,8,101,102,102,loc6,loc1,1,0.0
50,11,100,1.219478846,1,7,1,3,1,3,101,101,102,loc2,,1,10.0
51,11,100,1.47619915,5,4,6,8,8,6,101,102,101,loc2,loc1,1,0.0
52,11,100,1.730044127,2,3,1,3,7,1,101,101,102,loc5,loc1,1,0.0
53,11,100,1.4305541519999998,1,6,2,4,4,4,102,102,102,loc2,loc1,1,0.0
54,11,100,1.17841959,5,1,3,1,3,3,102,101,102,loc1,,1,10.0
55,11,100,1.196362495,8,1,4,2,2,4,101,102,102,loc1,loc2,1,1.0
56,11,100,0.9296453000000001,2,4,8,4,2,2,101,102,102,loc3,,1,10.0
57,11,100,1.3903188709999998,7,5,1,7,7,5,102,101,101,loc3,,1,10.0
58,11,100,1.107532501,4,8,4,2,2,2,101,102,102,loc2,,1,10.0
59,11,100,1.1688961979999999,3,1,1,3,5,3,102,101,102,loc5,,1,10.0
60,11,100,1.131454229,6,3,5,7,5,7,101,101,101,loc2,loc1,1,0.0
61,11,100,1.39940238,4,1,1,3,7,1,101,101,102,loc5,loc1,1,0.0
62,11,100,1.212675095,4,4,2,2,2,8,101,102,102,loc6,,1,10.0
63,11,100,1.04525733,5,7,1,7,7,5,102,101,101,loc3,,1,10.0
64,11,100,1.4486064909999998,1,3,1,5,3,3,102,101,102,loc4,,1,10.0
65,11,100,1.2684865,8,3,7,5,5,5,101,101,101,loc2,loc1,1,0.0
66,11,100,0.89038825,8,6,8,6,4,6,101,102,101,loc5,,1,10.0
67,11,100,1.5285034180000001,8,5,5,7,7,1,102,101,101,loc6,loc1,1,0.0
68,11,100,1.108397007,6,2,8,5,8,8,102,102,101,loc2,loc4,1,3.0
69,11,100,1.7897150519999998,3,2,4,2,6,4,102,102,102,loc5,loc1,1,0.0
70,11,100,1.107496738,6,7,3,5,7,5,101,101,101,loc3,loc1,1,0.0
71,11,100,0.956150055,8,8,6,2,8,6,102,102,101,loc4,,1,10.0
72,11,100,1.207543135,8,6,4,6,6,8,101,102,101,loc3,,1,10.0
73,11,100,1.5522289280000001,2,3,3,1,5,3,102,101,102,loc5,loc1,1,0.0
74,11,100,1.175390959,3,7,3,1,1,1,101,101,102,loc2,,1,10.0
75,11,0,0.0,5,6,8,6,4,8,101,102,101,loc5,loc1,1,0.0
76,11,100,1.077172279,4,4,8,2,2,2,101,102,102,loc3,,1,10.0
77,11,100,0.835210323,4,2,2,6,4,4,102,102,102,loc4,,1,10.0
78,11,100,1.291325331,6,7,7,5,5,3,101,101,101,loc6,loc1,1,0.0
79,11,100,1.35720253,2,5,3,3,1,3,102,101,102,loc2,loc1,1,0.0
80,11,100,1.0637531279999999,4,4,6,2,2,4,102,102,102,loc3,,1,10.0
81,11,100,0.9669840340000001,8,4,2,2,4,2,101,102,102,loc1,,1,10.0
82,11,100,1.825684071,3,3,1,1,5,3,102,101,102,loc5,,1,10.0
83,11,100,1.7454197409999999,1,7,3,1,3,1,101,101,102,loc2,,1,10.0
84,11,100,1.293248892,8,1,2,4,4,2,101,102,102,loc1,loc2,1,1.0
85,11,100,1.1744961740000002,2,6,6,8,8,8,102,102,101,loc1,,1,10.0
86,11,100,1.209220886,7,5,5,7,1,8,102,101,101,loc5,loc6,1,1.0
87,11,100,1.013854265,5,5,1,7,7,7,102,101,101,loc3,,1,10.0
88,11,100,1.5505192280000002,6,4,2,3,4,2,102,102,102,loc1,loc4,1,3.0
89,11,0,0.0,4,1,1,3,3,5,102,101,102,loc6,loc1,1,0.0
90,11,100,1.6046769619999999,7,1,1,3,1,4,101,101,102,loc1,loc6,1,1.0
91,11,100,1.22188735,5,8,6,2,8,8,102,102,101,loc4,loc1,1,0.0
92,11,100,1.270523548,1,5,5,7,7,7,102,101,101,loc1,,1,10.0
93,11,100,0.8850190640000001,8,6,6,6,4,8,101,102,101,loc5,,1,10.0
94,11,100,1.67505312,5,7,6,3,7,5,101,101,101,loc4,loc3,1,2.0
95,11,100,1.436932325,1,3,1,3,1,7,101,101,102,loc6,,1,10.0
96,11,100,1.396851778,2,8,7,6,8,6,102,102,101,loc1,loc3,1,2.0
97,11,100,1.4940302369999998,4,3,2,2,4,6,102,102,102,loc6,loc2,1,1.0
98,11,0,1.059861422,6,6,8,8,2,8,102,102,101,loc5,,1,10.0
99,11,100,1.5945425030000002,3,1,7,1,2,3,101,101,102,loc3,loc5,1,2.0
100,11,100,0.955658197,6,2,2,4,4,4,102,102,102,loc1,,1,10.0
101,11,100,1.651028156,7,5,7,5,5,3,101,101,101,loc6,,1,10.0
102,11,0,0.0,7,1,3,1,2,3,101,101,102,loc1,loc5,1,2.0
103,11,100,1.325264931,2,6,8,8,8,6,102,102,101,loc1,,1,10.0
104,11,100,1.633887053,6,7,5,3,5,7,101,101,101,loc4,loc1,1,0.0
105,11,100,1.353697062,1,4,2,6,4,4,102,102,102,loc4,loc1,1,0.0
106,11,100,0.949000835,1,3,3,7,1,1,101,101,102,loc4,,1,10.0
107,11,100,0.8403482440000001,5,8,6,8,6,4,101,102,101,loc6,loc1,1,0.0
108,11,0,0.0,3,4,8,2,2,2,101,102,102,loc3,loc1,1,0.0
109,11,100,1.190818787,5,6,2,8,8,8,102,102,101,loc3,loc1,1,0.0
110,11,100,0.784857035,5,3,5,5,7,7,101,101,101,loc2,,1,10.0
111,11,100,1.8388829230000001,2,3,5,3,3,1,102,101,102,loc3,loc1,1,0.0
112,11,100,1.538604975,8,7,5,1,5,7,102,101,101,loc4,loc1,1,0.0
113,11,0,0.0,1,3,3,3,1,5,102,101,102,loc6,,1,10.0
114,11,100,0.924817801,2,4,2,6,4,4,102,102,102,loc4,,1,10.0
115,11,100,1.845554352,7,4,6,8,6,6,101,102,101,loc2,loc1,1,0.0
116,11,100,1.140645027,4,8,4,2,2,2,101,102,102,loc2,,1,10.0
117,11,100,1.0966053009999999,1,1,3,1,7,3,101,101,102,loc5,,1,10.0
118,11,100,1.125886202,6,8,6,6,8,4,101,102,101,loc6,,1,10.0
119,11,100,1.070572615,8,2,6,8,8,6,102,102,101,loc2,,1,10.0
120,11,100,1.282536745,5,7,7,7,1,5,102,101,101,loc5,,1,10.0
121,11,100,1.1084713940000002,6,4,2,3,2,4,102,102,102,loc1,loc4,1,3.0
122,11,100,1.5091674330000002,5,6,8,2,8,8,102,102,101,loc4,loc1,1,0.0
123,11,100,1.006349325,4,2,4,2,4,6,102,102,102,loc6,,1,10.0
124,11,100,1.247061014,6,7,5,7,1,7,102,101,101,loc5,loc1,1,0.0
125,11,100,1.191051245,2,6,4,4,4,2,102,102,102,loc2,,1,10.0
126,11,100,1.496347189,2,5,3,3,1,3,102,101,102,loc2,loc1,1,0.0
127,11,100,1.5975389480000002,4,3,2,2,2,8,101,102,102,loc6,loc2,1,1.0
128,11,100,1.527478933,8,2,2,4,1,4,101,102,102,loc1,loc5,1,2.0
129,11,100,1.431332111,7,6,8,6,6,4,101,102,101,loc6,loc1,1,0.0
130,11,100,1.527221203,5,3,3,3,1,2,102,101,102,loc1,loc6,1,1.0
131,11,100,1.451694012,8,2,6,6,8,8,102,102,101,loc2,,1,10.0
132,11,100,1.5469515319999998,1,4,6,4,4,2,102,102,102,loc3,loc1,1,0.0
133,11,100,1.6901681419999999,3,4,6,4,2,2,102,102,102,loc3,loc1,1,0.0
134,11,100,1.107261181,5,8,6,8,6,4,101,102,101,loc6,loc1,1,0.0
135,11,100,1.29655242,3,4,2,2,6,4,102,102,102,loc5,loc1,1,0.0
136,11,100,0.901792288,5,5,3,7,5,7,101,101,101,loc3,,1,10.0
137,11,100,1.6632232669999998,5,5,6,3,7,7,101,101,101,loc4,loc3,1,2.0
138,11,100,1.333757162,1,8,2,2,4,4,101,102,102,loc2,loc1,1,0.0
139,11,100,0.913638353,3,3,5,1,1,3,102,101,102,loc3,,1,10.0
140,11,100,0.9950511459999999,8,2,4,2,2,4,101,102,102,loc1,,1,10.0
141,11,100,1.044509172,6,8,8,6,8,2,102,102,101,loc6,,1,10.0
142,11,100,1.2198250290000001,8,6,8,2,8,6,102,102,101,loc4,,1,10.0
143,11,100,1.284411192,8,7,5,3,5,5,101,101,101,loc4,loc1,1,0.0
144,11,100,1.9303891659999999,1,5,1,3,3,3,102,101,102,loc2,,1,10.0
145,11,100,1.506193399,5,1,1,3,3,3,102,101,102,loc1,,1,10.0
146,11,100,1.43142724,6,4,8,7,6,6,101,102,101,loc2,loc4,1,3.0
147,11,100,1.263199329,2,2,4,4,6,4,102,102,102,loc5,,1,10.0
148,11,100,1.3704829219999999,6,4,2,4,2,4,102,102,102,loc1,,1,10.0
149,11,100,1.3004178999999998,1,5,5,7,7,7,102,101,101,loc1,,1,10.0
150,11,100,1.081698179,4,2,2,8,4,2,101,102,102,loc4,,1,10.0
151,11,100,1.4523634909999998,2,4,2,2,8,4,101,102,102,loc5,,1,10.0
152,11,100,0.80287528,2,6,8,8,8,6,102,102,101,loc1,,1,10.0
153,11,100,1.268268108,4,1,1,1,7,3,101,101,102,loc5,loc1,1,0.0
154,11,100,1.32688117,7,7,5,3,5,5,101,101,101,loc4,,1,10.0
155,11,100,0.959440231,5,3,7,5,7,5,101,101,101,loc2,,1,10.0
156,11,100,1.090240955,5,8,8,6,8,2,102,102,101,loc6,loc1,1,0.0
157,11,100,0.956146479,7,5,5,7,5,3,101,101,101,loc6,,1,10.0
158,11,100,1.246897221,5,2,8,8,8,6,102,102,101,loc2,loc1,1,0.0
159,11,100,0.8148233890000001,1,3,5,1,3,3,102,101,102,loc3,,1,10.0
160,11,100,0.91963315,6,5,5,7,7,3,101,101,101,loc6,loc1,1,0.0
161,11,100,1.264356136,5,1,4,3,3,1,102,101,102,loc1,loc3,1,2.0
162,11,100,1.002901316,6,8,8,6,2,8,102,102,101,loc5,,1,10.0
163,11,100,0.684226274,7,5,5,7,5,3,101,101,101,loc6,,1,10.0
164,11,100,0.910389185,5,7,5,7,5,3,101,101,101,loc6,,1,10.0
165,11,100,0.85104537,4,6,2,4,2,4,102,102,102,loc2,,1,10.0
166,11,100,1.034486055,2,1,1,7,3,3,101,101,102,loc4,loc1,1,0.0
167,11,100,0.818531036,3,1,1,7,3,1,101,101,102,loc4,,1,10.0
168,11,100,0.967281342,1,6,2,4,4,4,102,102,102,loc2,loc1,1,0.0
169,11,100,1.2300114629999999,8,7,5,3,5,5,101,101,101,loc4,loc1,1,0.0
170,11,100,1.0499002929999999,4,1,7,3,1,1,101,101,102,loc3,loc1,1,0.0
171,11,100,1.2013411520000001,8,8,4,6,5,6,101,102,101,loc3,loc5,1,2.0
172,11,100,1.170666218,7,5,3,5,5,7,101,101,101,loc3,,1,10.0
173,11,100,1.309286118,5,7,5,7,1,7,102,101,101,loc5,,1,10.0
174,11,100,1.066539049,1,3,7,1,3,1,101,101,102,loc3,,1,10.0
175,11,100,0.9211514000000001,1,3,1,7,3,1,101,101,102,loc4,,1,10.0
176,11,100,1.621237993,6,6,6,8,4,7,101,102,101,loc5,loc6,1,1.0
177,11,100,0.9057488440000001,6,5,3,7,7,5,101,101,101,loc3,loc1,1,0.0
178,11,100,1.163061619,8,1,2,4,4,2,101,102,102,loc1,loc2,1,1.0
179,11,100,0.961758852,8,7,5,5,1,7,102,101,101,loc5,loc1,1,0.0
180,11,100,1.073862076,1,7,5,5,7,7,102,101,101,loc1,,1,10.0
181,11,100,0.8959093090000001,3,2,2,8,4,2,101,102,102,loc4,loc1,1,0.0
182,11,100,1.037199259,2,6,8,7,8,6,102,102,101,loc1,loc4,1,3.0
183,11,100,1.077180386,8,2,2,4,2,4,101,102,102,loc1,,1,10.0
184,11,100,1.283827543,5,5,7,7,3,5,101,101,101,loc5,,1,10.0
185,11,100,1.621765375,2,3,5,1,3,3,102,101,102,loc3,loc1,1,0.0
186,11,100,1.197708368,8,3,5,5,7,5,101,101,101,loc2,loc1,1,0.0
187,11,100,1.27163434,8,2,6,8,8,6,102,102,101,loc2,,1,10.0
188,11,100,1.325592279,5,3,5,7,5,7,101,101,101,loc2,,1,10.0
189,11,100,0.938227177,3,2,4,8,2,2,101,102,102,loc4,loc1,1,0.0
190,11,100,1.2783212659999998,5,2,3,3,1,3,102,101,102,loc1,loc2,1,1.0
191,11,100,1.0282032490000002,4,2,8,4,2,2,101,102,102,loc3,,1,10.0
192,11,100,1.156269073,6,8,8,6,2,8,102,102,101,loc5,,1,10.0
193,11,100,1.447580099,3,3,1,5,3,1,102,101,102,loc4,,1,10.0
194,11,100,1.406765223,7,5,7,7,1,6,102,101,101,loc5,loc6,1,1.0
195,11,100,1.159985542,2,4,4,2,4,6,102,102,102,loc6,,1,10.0
196,11,100,1.6826584340000001,6,8,2,8,8,6,102,102,101,loc3,,1,10.0
197,11,100,1.156461239,8,8,6,6,6,4,101,102,101,loc6,,1,10.0
198,11,100,1.5758132930000002,4,5,1,1,3,3,102,101,102,loc2,loc1,1,0.0
199,11,100,1.321666241,7,6,6,2,8,8,102,102,101,loc4,loc1,1,0.0
200,11,100,0.990286827,7,5,5,3,5,7,101,101,101,loc4,,1,10.0
201,11,0,1.584295988,2,2,8,4,4,2,101,102,102,loc3,,1,10.0
202,11,0,0.0,1,5,7,7,7,6,102,101,101,loc1,loc6,1,1.0
203,11,100,1.165171862,4,8,6,8,6,6,101,102,101,loc1,,1,10.0
204,11,100,1.587837934,7,3,3,1,2,1,101,101,102,loc1,loc5,1,2.0
205,11,100,1.745706797,8,8,6,4,6,6,101,102,101,loc4,,1,10.0
206,11,100,1.044901371,7,6,6,8,8,2,102,102,101,loc6,loc1,1,0.0
207,11,0,1.788190126,4,1,1,1,7,3,101,101,102,loc5,loc1,1,0.0
208,11,100,1.846016169,8,7,5,5,5,3,101,101,101,loc6,loc1,1,0.0
209,11,100,1.033767223,6,7,1,7,5,7,102,101,101,loc3,loc1,1,0.0
210,11,100,1.529800892,1,3,4,7,1,1,101,101,102,loc4,loc3,1,2.0
211,11,100,1.341608047,5,5,7,5,7,3,101,101,101,loc6,,1,10.0
212,11,100,1.036861181,4,2,6,2,4,4,102,102,102,loc3,,1,10.0
213,11,100,1.71690011,4,2,4,2,8,2,101,102,102,loc5,,1,10.0
214,11,100,0.92935729,7,1,3,1,3,1,101,101,102,loc1,,1,10.0
215,11,100,0.781497478,1,1,1,3,3,7,101,101,102,loc6,,1,10.0
216,11,100,0.928230047,2,8,8,6,6,8,102,102,101,loc1,,1,10.0
217,11,100,1.160285234,2,8,2,4,2,4,101,102,102,loc2,,1,10.0
218,11,100,0.994929552,4,1,3,5,1,3,102,101,102,loc4,loc1,1,0.0
219,11,100,0.700884104,4,4,2,6,4,2,102,102,102,loc4,,1,10.0
220,11,100,1.742395163,3,4,2,2,8,2,101,102,102,loc5,loc1,1,0.0
221,11,100,1.4814662930000002,7,6,8,6,4,6,101,102,101,loc5,loc1,1,0.0
222,11,100,1.367280245,3,3,5,1,2,3,102,101,102,loc3,loc5,1,2.0
223,11,100,1.713949919,6,2,8,6,8,8,102,102,101,loc2,,1,10.0
224,11,0,0.0,2,3,5,3,3,1,102,101,102,loc3,loc1,1,0.0
225,11,100,1.526133537,6,7,7,7,5,1,102,101,101,loc6,loc1,1,0.0
226,11,100,1.566037893,1,4,4,2,2,8,101,102,102,loc6,loc1,1,0.0
227,11,100,1.248526096,1,7,3,2,1,3,101,101,102,loc2,loc4,1,3.0
228,11,100,0.7278594970000001,3,5,3,1,1,3,102,101,102,loc2,,1,10.0
229,11,100,1.132550478,6,7,7,7,1,5,102,101,101,loc5,loc1,1,0.0
230,11,100,1.540510416,7,4,6,6,6,8,101,102,101,loc2,loc1,1,0.0
231,11,100,0.935725212,6,5,8,8,8,2,102,102,101,loc6,loc2,1,1.0
232,11,100,1.35172224,8,6,6,4,8,6,101,102,101,loc4,,1,10.0
233,11,100,1.346946955,4,4,4,2,6,2,102,102,102,loc5,,1,10.0
234,11,100,1.062958241,6,7,3,7,5,5,101,101,101,loc3,loc1,1,0.0
235,11,100,1.393630266,2,4,8,2,4,2,101,102,102,loc3,,1,10.0
236,11,100,1.002916813,5,3,2,3,3,1,102,101,102,loc1,loc3,1,2.0
237,11,100,1.3962314130000002,2,2,4,4,4,6,102,102,102,loc6,,1,10.0
238,11,100,0.9574344159999999,5,7,7,5,1,7,102,101,101,loc5,,1,10.0
239,11,100,1.024701118,8,3,5,5,5,7,101,101,101,loc2,loc1,1,0.0
240,11,100,1.105421543,4,1,3,7,1,1,101,101,102,loc4,loc1,1,0.0
241,11,100,0.786077261,8,6,8,8,2,6,102,102,101,loc5,,1,10.0
242,11,100,0.796138525,3,7,5,7,5,5,101,101,101,loc1,,1,10.0
243,11,100,0.781595945,7,8,6,8,2,6,102,102,101,loc5,loc1,1,0.0
244,11,100,1.1124231820000001,4,8,5,6,8,6,101,102,101,loc1,loc3,1,2.0
245,11,100,1.149082184,2,7,1,1,3,3,101,101,102,loc2,loc1,1,0.0
246,11,100,0.928427696,3,3,1,3,1,5,102,101,102,loc6,,1,10.0
247,11,100,1.068428278,8,2,2,2,3,4,101,102,102,loc1,loc5,1,2.0
248,11,100,1.1390838620000001,8,6,2,8,6,8,102,102,101,loc3,,1,10.0
249,11,100,0.839136839,2,3,7,1,3,1,101,101,102,loc3,loc1,1,0.0
250,11,100,0.9552206990000001,7,1,5,7,7,5,102,101,101,loc2,,1,10.0
251,11,100,0.849935055,4,2,8,4,2,2,101,102,102,loc3,,1,10.0
252,11,100,0.957341433,2,4,2,6,4,4,102,102,102,loc4,,1,10.0
253,11,100,0.892714977,7,3,5,5,7,5,101,101,101,loc2,,1,10.0
254,11,100,1.038099289,1,4,2,4,6,4,102,102,102,loc5,loc1,1,0.0
255,11,100,0.894036055,6,8,6,8,4,6,101,102,101,loc5,,1,10.0
256,11,100,0.75618124,3,7,1,1,3,1,101,101,102,loc2,,1,10.0
257,11,100,1.1709373,7,6,8,6,6,4,101,102,101,loc6,loc1,1,0.0
258,11,100,0.877562046,2,6,4,4,4,2,102,102,102,loc2,,1,10.0
259,11,100,0.8315961359999999,4,5,1,3,3,1,102,101,102,loc2,loc1,1,0.0
260,11,100,0.8404092790000001,8,6,6,8,6,4,101,102,101,loc6,,1,10.0
261,11,100,1.255773306,1,2,3,3,3,5,102,101,102,loc6,loc2,1,1.0
262,11,100,1.127039194,3,5,5,7,5,7,101,101,101,loc1,,1,10.0
263,11,100,1.247022152,1,1,1,3,7,3,101,101,102,loc5,,1,10.0
264,11,100,1.6303722859999998,7,8,6,8,2,6,102,102,101,loc5,loc1,1,0.0
265,11,100,1.158874035,2,4,4,2,4,6,102,102,102,loc6,,1,10.0
266,11,100,1.313478231,8,5,7,5,7,1,102,101,101,loc6,loc1,1,0.0
267,11,100,1.006037951,7,5,7,3,5,5,101,101,101,loc4,,1,10.0
268,11,100,1.2193987370000001,7,1,3,1,3,1,101,101,102,loc1,,1,10.0
269,11,100,1.0439839359999998,7,5,3,7,5,5,101,101,101,loc3,,1,10.0
270,11,100,0.811410427,5,7,5,7,5,3,101,101,101,loc6,,1,10.0
271,11,100,0.864821196,4,1,5,3,3,1,102,101,102,loc3,loc1,1,0.0
272,11,100,1.6675484180000002,8,3,7,5,5,5,101,101,101,loc2,loc1,1,0.0
273,11,100,1.086027145,3,4,8,2,2,2,101,102,102,loc3,loc1,1,0.0
274,11,100,1.36399436,2,2,4,2,8,4,101,102,102,loc5,,1,10.0
275,11,100,1.11058116,1,3,5,1,4,3,102,101,102,loc3,loc5,1,2.0
276,11,100,1.2832984920000001,2,4,4,6,2,4,102,102,102,loc4,,1,10.0
277,11,100,1.23316741,4,2,4,8,2,2,101,102,102,loc4,,1,10.0
278,11,100,1.873775244,5,4,6,8,6,8,101,102,101,loc2,loc1,1,0.0
279,11,100,1.45156312,3,5,3,2,3,1,102,101,102,loc2,loc4,1,3.0
280,11,100,1.230746984,8,2,6,6,8,8,102,102,101,loc2,,1,10.0
281,11,100,1.406789303,7,5,7,1,5,7,102,101,101,loc4,,1,10.0
282,11,100,1.735991001,8,5,5,7,5,3,101,101,101,loc6,loc1,1,0.0
283,11,100,1.011862278,6,8,2,8,8,6,102,102,101,loc3,,1,10.0
284,11,100,0.764471769,5,8,4,8,6,6,101,102,101,loc3,loc1,1,0.0
285,11,100,1.1312820909999999,5,6,8,2,8,8,102,102,101,loc4,loc1,1,0.0
286,11,100,1.559253931,2,4,4,2,6,3,102,102,102,loc5,loc6,1,1.0
287,11,100,1.190499067,1,1,3,3,3,5,102,101,102,loc6,,1,10.0
288,11,100,1.57651329,8,2,2,3,4,2,101,102,102,loc1,loc4,1,3.0
289,11,100,1.5063283440000002,2,3,1,3,1,7,101,101,102,loc6,loc1,1,0.0
290,11,100,1.527555943,7,4,1,1,1,3,101,101,102,loc1,loc2,1,1.0
291,11,100,0.803397417,1,3,5,3,1,3,102,101,102,loc3,,1,10.0
292,11,100,1.400827885,2,6,8,8,6,8,102,102,101,loc1,,1,10.0
293,11,100,1.465999126,5,7,7,5,3,5,101,101,101,loc5,,1,10.0
294,11,100,1.18862915,2,3,3,5,3,1,102,101,102,loc4,loc1,1,0.0
295,11,100,1.082520008,1,4,4,6,4,2,102,102,102,loc4,loc1,1,0.0
296,11,100,1.4246494769999998,2,6,8,8,8,6,102,102,101,loc1,,1,10.0
297,11,100,1.584510088,8,6,5,2,8,8,102,102,101,loc4,loc3,1,2.0
298,11,100,1.074386358,8,5,7,5,3,5,101,101,101,loc5,loc1,1,0.0
299,11,100,1.417033195,2,8,8,8,6,5,102,102,101,loc1,loc6,1,1.0
300,11,100,1.281275988,4,3,3,1,5,1,102,101,102,loc5,loc1,1,0.0
301,11,100,1.219287395,5,7,8,3,5,5,101,101,101,loc4,loc3,1,2.0
302,11,100,0.9159550670000001,8,5,3,5,7,5,101,101,101,loc3,loc1,1,0.0
303,11,100,1.000510216,6,7,5,7,1,7,102,101,101,loc5,loc1,1,0.0
304,11,100,1.041926146,1,5,1,3,3,3,102,101,102,loc2,,1,10.0
305,11,100,0.83323884,2,8,2,4,4,2,101,102,102,loc2,,1,10.0
306,11,100,1.16128993,1,8,7,7,5,5,102,101,101,loc1,loc2,1,1.0
307,11,100,0.748687267,2,2,4,4,2,8,101,102,102,loc6,,1,10.0
308,11,100,0.912108898,6,8,6,4,6,8,101,102,101,loc4,,1,10.0
309,11,100,1.204766273,7,6,6,4,6,8,101,102,101,loc4,loc1,1,0.0
310,11,100,1.078125954,5,8,8,8,2,6,102,102,101,loc5,loc1,1,0.0
311,11,100,0.7160849570000001,2,8,6,8,6,8,102,102,101,loc1,,1,10.0
312,11,100,0.824838877,3,5,5,7,5,7,101,101,101,loc1,,1,10.0
313,11,100,0.905623436,8,6,6,4,6,8,101,102,101,loc4,,1,10.0
314,11,100,1.30230689,4,1,7,3,1,1,101,101,102,loc3,loc1,1,0.0
315,11,100,0.819535017,6,6,8,8,8,2,102,102,101,loc6,,1,10.0
316,11,100,0.932254076,6,6,8,6,8,4,101,102,101,loc6,,1,10.0
317,11,100,1.160352945,2,4,8,2,4,2,101,102,102,loc3,,1,10.0
318,11,0,1.595697165,5,8,6,4,6,8,101,102,101,loc4,loc1,1,0.0
319,11,100,0.852811098,7,8,8,6,6,2,102,102,101,loc6,loc1,1,0.0
320,11,100,0.7642138,6,8,6,6,4,8,101,102,101,loc5,,1,10.0
321,11,100,1.022999287,5,8,8,8,2,6,102,102,101,loc5,loc1,1,0.0
322,11,100,1.3436930180000002,2,4,6,2,3,4,102,102,102,loc3,loc5,1,2.0
323,11,100,1.306864977,8,5,7,1,7,5,102,101,101,loc4,loc1,1,0.0
324,11,100,1.19618988,7,5,5,1,7,7,102,101,101,loc4,,1,10.0
325,11,100,1.005434275,2,8,2,4,2,4,101,102,102,loc2,,1,10.0
326,11,100,0.8467280859999999,6,8,8,6,2,8,102,102,101,loc5,,1,10.0
327,11,100,0.7541420459999999,1,3,1,7,1,3,101,101,102,loc4,,1,10.0
328,11,100,0.9136250020000001,8,5,5,7,7,1,102,101,101,loc6,loc1,1,0.0
329,11,100,0.978355885,1,5,5,7,8,7,102,101,101,loc1,loc5,1,2.0
330,11,100,0.656321526,2,2,8,2,4,4,101,102,102,loc3,,1,10.0
331,11,100,0.9238362309999999,8,2,6,8,6,8,102,102,101,loc2,,1,10.0
332,11,100,1.4566133019999998,4,1,7,1,3,1,101,101,102,loc3,loc1,1,0.0
333,11,100,0.839117765,3,8,2,2,4,2,101,102,102,loc2,loc1,1,0.0
334,11,100,1.075208902,4,6,4,1,2,4,102,102,102,loc2,loc4,1,3.0
335,11,100,1.173869133,3,1,1,3,5,4,102,101,102,loc5,loc6,1,1.0
336,11,100,0.943855047,4,4,4,6,2,2,102,102,102,loc4,,1,10.0
337,11,100,1.707927465,8,7,5,7,5,1,102,101,101,loc6,loc1,1,0.0
338,11,100,1.56045866,7,1,3,3,1,2,101,101,102,loc1,loc6,1,1.0
339,11,100,0.783631325,6,8,2,6,8,8,102,102,101,loc3,,1,10.0
340,11,100,0.9457001690000001,2,6,8,6,8,8,102,102,101,loc1,,1,10.0
341,11,100,1.169017076,1,5,7,5,7,7,102,101,101,loc1,,1,10.0
342,11,100,1.163624287,8,4,4,1,2,2,101,102,102,loc1,loc4,1,3.0
343,11,100,0.942288399,2,3,7,1,3,1,101,101,102,loc3,loc1,1,0.0
344,11,100,1.1376481059999999,1,7,1,3,1,3,101,101,102,loc2,,1,10.0
345,11,100,1.165693283,2,8,5,8,6,8,102,102,101,loc1,loc3,1,2.0
346,11,100,1.3883314130000002,3,1,3,3,5,1,102,101,102,loc5,,1,10.0
347,11,100,1.134214163,4,4,8,2,2,2,101,102,102,loc3,,1,10.0
348,11,100,0.826184988,3,1,7,1,3,1,101,101,102,loc3,,1,10.0
349,11,100,1.042963505,4,3,1,3,1,5,102,101,102,loc6,loc1,1,0.0
350,11,100,0.850363255,1,1,3,3,7,1,101,101,102,loc5,,1,10.0
351,11,100,1.017779827,6,5,8,8,8,2,102,102,101,loc6,loc2,1,1.0
352,11,100,0.826545238,8,8,6,6,6,4,101,102,101,loc6,,1,10.0
353,11,100,0.8905923370000001,2,7,1,3,3,1,101,101,102,loc2,loc1,1,0.0
354,11,100,1.040643215,6,2,4,4,4,2,102,102,102,loc1,,1,10.0
355,11,100,0.83268714,2,7,3,1,1,3,101,101,102,loc2,loc1,1,0.0
356,11,100,1.168790102,6,5,7,3,5,7,101,101,101,loc4,loc1,1,0.0
357,11,100,0.807504177,3,3,3,1,1,5,102,101,102,loc6,,1,10.0
358,11,100,1.088149071,2,5,1,3,3,3,102,101,102,loc2,loc1,1,0.0
359,11,100,0.83415556,1,3,1,3,7,1,101,101,102,loc5,,1,10.0
360,11,100,1.337268353,7,1,5,7,5,7,102,101,101,loc2,,1,10.0
361,11,100,0.7164433000000001,8,6,6,6,4,8,101,102,101,loc5,,1,10.0
362,11,100,0.96126008,8,5,8,8,6,2,102,102,101,loc6,loc2,1,1.0
363,11,100,0.95665884,3,8,2,2,2,4,101,102,102,loc2,loc1,1,0.0
364,11,100,1.195439577,3,1,1,7,3,1,101,101,102,loc4,,1,10.0
365,11,100,1.521325588,4,7,1,3,1,1,101,101,102,loc2,loc1,1,0.0
366,11,100,1.073246002,6,8,8,8,2,6,102,102,101,loc5,,1,10.0
367,11,100,0.807866335,7,1,7,5,7,5,102,101,101,loc2,,1,10.0
368,11,100,0.74524951,4,6,8,8,6,6,101,102,101,loc1,,1,10.0
369,11,100,0.852751255,5,5,5,7,3,8,101,101,101,loc5,loc6,1,1.0
370,11,100,0.7920992370000001,3,4,6,4,2,2,102,102,102,loc3,loc1,1,0.0
371,11,100,0.633527994,3,1,3,1,7,1,101,101,102,loc5,,1,10.0
372,11,100,0.793667316,5,7,7,5,5,3,101,101,101,loc6,,1,10.0
373,11,100,1.4917647840000001,6,4,1,4,2,4,102,102,102,loc1,loc3,1,2.0
374,11,100,0.8969941140000001,6,5,7,7,3,5,101,101,101,loc5,loc1,1,0.0
375,11,100,0.739005327,6,6,4,6,8,8,101,102,101,loc3,,1,10.0
376,11,100,1.626448154,2,3,1,3,1,7,101,101,102,loc6,loc1,1,0.0
377,11,100,1.066976786,1,3,1,7,1,3,101,101,102,loc4,,1,10.0
378,11,100,1.917659044,6,7,5,3,5,7,101,101,101,loc4,loc1,1,0.0
379,11,100,1.114120245,1,5,7,5,7,7,102,101,101,loc1,,1,10.0
380,11,100,1.882776499,6,2,2,4,4,4,102,102,102,loc1,,1,10.0
381,11,100,1.236535311,8,4,2,2,2,3,101,102,102,loc1,loc6,1,1.0
382,11,100,1.208474398,7,1,3,1,3,1,101,101,102,loc1,,1,10.0
383,11,100,1.041073084,6,6,4,8,8,6,101,102,101,loc3,,1,10.0
384,11,100,1.725085974,1,3,1,3,3,5,102,101,102,loc6,,1,10.0
385,11,100,1.521643162,4,3,1,1,3,5,102,101,102,loc6,loc1,1,0.0
386,11,100,1.4854459759999998,8,7,5,7,5,1,102,101,101,loc6,loc1,1,0.0
387,11,100,1.8993020059999999,5,7,5,7,7,1,102,101,101,loc6,,1,10.0
388,11,100,0.968455315,3,3,1,1,5,3,102,101,102,loc5,,1,10.0
389,11,100,1.1711270809999998,2,3,3,1,5,3,102,101,102,loc5,loc1,1,0.0
390,11,100,0.885809183,7,3,1,1,3,1,101,101,102,loc1,,1,10.0
391,11,100,0.787778139,1,4,8,2,4,2,101,102,102,loc3,loc1,1,0.0
392,11,100,1.189899445,4,7,1,1,1,3,101,101,102,loc2,loc1,1,0.0
393,11,100,0.747206211,2,2,4,4,6,4,102,102,102,loc5,,1,10.0
394,11,100,0.7153482440000001,2,4,6,4,4,2,102,102,102,loc3,,1,10.0
395,11,100,1.156124353,6,2,8,6,8,8,102,102,101,loc2,,1,10.0
396,11,100,1.122790337,6,4,6,7,6,8,101,102,101,loc2,loc4,1,3.0
397,11,100,1.779417038,6,5,7,1,7,7,102,101,101,loc4,loc1,1,0.0
398,11,100,0.9252419470000001,4,2,4,2,2,8,101,102,102,loc6,,1,10.0
399,11,100,0.977927208,7,2,6,6,8,8,102,102,101,loc2,loc1,1,0.0
400,11,100,1.087960482,3,3,1,5,1,3,102,101,102,loc4,,1,10.0
401,11,100,0.7579340929999999,8,6,6,4,6,8,101,102,101,loc4,,1,10.0
402,11,100,1.481336117,8,5,5,7,3,5,101,101,101,loc5,loc1,1,0.0
403,11,100,1.455193281,4,3,1,1,5,3,102,101,102,loc5,loc1,1,0.0
404,11,100,1.953765392,4,7,8,6,6,6,101,102,101,loc1,loc2,1,1.0
405,11,100,0.852786064,3,3,5,1,1,3,102,101,102,loc3,,1,10.0
406,11,100,1.004186869,3,2,6,4,2,4,102,102,102,loc3,loc1,1,0.0
407,11,100,1.10954237,6,8,5,4,6,8,101,102,101,loc4,loc3,1,2.0
408,11,100,1.5142664909999999,7,3,5,5,5,7,101,101,101,loc2,,1,10.0
409,11,100,1.471494436,7,6,2,8,8,6,102,102,101,loc3,loc1,1,0.0
410,11,100,0.7932734490000001,6,8,8,8,6,2,102,102,101,loc6,,1,10.0
411,11,100,1.471388102,3,2,4,8,2,2,101,102,102,loc4,loc1,1,0.0
412,11,100,1.025951862,8,8,6,2,6,8,102,102,101,loc4,,1,10.0
413,11,100,1.298041105,5,3,1,4,3,1,102,101,102,loc1,loc4,1,3.0
414,11,100,1.511255026,7,7,1,7,6,5,102,101,101,loc3,loc5,1,2.0
415,11,100,0.86048913,5,8,6,8,8,2,102,102,101,loc6,loc1,1,0.0
416,11,100,1.471250296,3,7,1,1,1,3,101,101,102,loc2,,1,10.0
417,11,100,1.4538130759999999,8,4,4,2,1,2,101,102,102,loc1,loc5,1,2.0
418,11,100,0.86501503,1,4,4,6,4,2,102,102,102,loc4,loc1,1,0.0
419,11,100,0.907754183,8,6,4,6,6,8,101,102,101,loc3,,1,10.0
420,11,100,1.104426146,8,6,8,8,6,2,102,102,101,loc6,,1,10.0
421,11,100,0.937036753,8,4,2,2,2,3,101,102,102,loc1,loc6,1,1.0
422,11,100,0.83710289,1,3,3,3,5,2,102,101,102,loc5,loc6,1,1.0
423,11,100,0.677155733,2,8,8,6,8,6,102,102,101,loc1,,1,10.0
424,11,100,0.7992904190000001,2,8,6,8,6,8,102,102,101,loc1,,1,10.0
425,11,100,1.1927678590000002,6,4,6,5,8,8,101,102,101,loc2,loc4,1,3.0
426,11,100,0.862672329,6,7,7,5,3,5,101,101,101,loc5,loc1,1,0.0
427,11,100,0.9733629229999999,1,5,8,7,5,7,102,101,101,loc1,loc3,1,2.0
428,11,100,1.0440664290000001,4,2,4,6,4,2,102,102,102,loc4,,1,10.0
429,11,100,0.847444057,1,2,8,2,4,4,101,102,102,loc3,loc1,1,0.0
430,11,100,0.918862104,7,3,5,5,7,5,101,101,101,loc2,,1,10.0
431,11,100,1.115459919,1,1,7,3,3,1,101,101,102,loc3,,1,10.0
432,11,100,1.360090971,4,3,7,1,1,1,101,101,102,loc3,loc1,1,0.0
433,11,100,0.8353805540000001,7,1,1,3,1,3,101,101,102,loc1,,1,10.0
434,11,100,1.467496395,6,3,4,4,2,2,102,102,102,loc1,loc2,1,1.0
435,11,100,1.582059145,5,8,7,7,5,1,102,101,101,loc6,loc2,1,1.0
436,11,100,0.65978837,8,8,8,6,6,2,102,102,101,loc6,,1,10.0
437,11,100,1.022607088,6,7,5,7,5,3,101,101,101,loc6,loc1,1,0.0
438,11,100,1.627355814,3,4,4,2,2,6,102,102,102,loc6,loc1,1,0.0
439,11,100,1.023156166,5,7,7,1,7,5,102,101,101,loc4,,1,10.0
440,11,100,1.695841074,1,4,4,2,4,6,102,102,102,loc6,loc1,1,0.0
441,11,100,0.860936165,6,8,4,8,6,6,101,102,101,loc3,,1,10.0
442,11,100,1.5923752780000002,2,1,3,7,3,1,101,101,102,loc4,loc1,1,0.0
443,11,100,1.0575912,4,2,2,8,4,2,101,102,102,loc4,,1,10.0
444,11,100,1.796970129,7,4,6,6,6,8,101,102,101,loc2,loc1,1,0.0
445,11,100,0.9060432909999999,5,3,7,7,5,5,101,101,101,loc2,,1,10.0
446,11,100,0.911422491,1,6,4,4,4,2,102,102,102,loc2,loc1,1,0.0
447,11,100,0.756179094,3,4,2,8,2,2,101,102,102,loc4,loc1,1,0.0
448,11,100,0.775580168,5,3,7,5,5,7,101,101,101,loc2,,1,10.0
449,11,100,1.169691086,4,4,4,2,2,6,102,102,102,loc6,,1,10.0
450,11,100,1.172299147,5,7,8,3,5,5,101,101,101,loc4,loc3,1,2.0
451,11,100,1.270896912,4,8,4,2,2,2,101,102,102,loc2,,1,10.0
452,11,100,0.985499144,6,2,8,8,8,6,102,102,101,loc2,,1,10.0
453,11,100,0.795580864,8,6,6,8,2,8,102,102,101,loc5,,1,10.0
454,11,100,1.612958193,1,2,4,4,6,4,102,102,102,loc5,loc1,1,0.0
455,11,100,0.7735259529999999,7,5,7,3,5,5,101,101,101,loc4,,1,10.0
456,11,100,1.172204018,4,4,2,8,2,2,101,102,102,loc4,,1,10.0
457,11,100,1.294248819,3,2,2,4,8,2,101,102,102,loc5,loc1,1,0.0
458,11,100,0.720162153,8,8,8,6,2,6,102,102,101,loc5,,1,10.0
459,11,100,1.0929734709999999,5,6,8,2,8,8,102,102,101,loc4,loc1,1,0.0
460,11,100,1.7303073409999998,8,1,5,7,5,7,102,101,101,loc2,loc1,1,0.0
461,11,100,0.9940650459999999,5,7,1,5,7,7,102,101,101,loc3,,1,10.0
462,11,100,1.37219882,3,1,3,1,7,1,101,101,102,loc5,,1,10.0
463,11,100,1.12210083,1,3,1,3,3,5,102,101,102,loc6,,1,10.0
464,11,100,0.874690533,3,5,5,7,7,5,101,101,101,loc1,,1,10.0
465,11,100,0.745469809,4,2,6,4,4,2,102,102,102,loc3,,1,10.0
466,11,100,1.2368729109999999,6,5,3,7,7,5,101,101,101,loc3,loc1,1,0.0
467,11,100,0.9167962070000001,2,1,7,3,1,3,101,101,102,loc3,loc1,1,0.0
468,11,100,0.641519308,3,3,3,1,1,5,102,101,102,loc6,,1,10.0
469,11,100,0.772984982,3,6,4,4,2,2,102,102,102,loc2,loc1,1,0.0
470,11,100,0.671783447,8,6,2,6,8,8,102,102,101,loc3,,1,10.0
471,11,100,0.9545314309999999,2,3,3,7,1,1,101,101,102,loc4,loc1,1,0.0
472,11,0,0.0,3,5,7,5,6,7,101,101,101,loc1,loc5,1,2.0
473,11,100,1.252978086,1,3,1,1,7,3,101,101,102,loc5,,1,10.0
474,11,100,1.388266325,8,7,5,5,7,1,102,101,101,loc6,loc1,1,0.0
475,11,100,0.8414773940000001,5,1,3,3,1,3,102,101,102,loc1,,1,10.0
476,11,100,0.9855091570000001,1,3,1,3,5,3,102,101,102,loc5,,1,10.0
477,11,100,0.979537487,3,1,5,3,2,3,102,101,102,loc3,loc5,1,2.0
478,11,100,0.9695522790000001,4,8,6,5,8,6,101,102,101,loc1,loc4,1,3.0
479,11,100,0.9642810820000001,7,8,6,6,4,6,101,102,101,loc5,loc1,1,0.0
480,12,100,1.219457865,7,2,6,8,6,8,102,102,101,loc2,loc1,1,0.0
481,12,100,0.844116926,8,6,4,6,6,8,101,102,101,loc3,,1,10.0
482,12,100,0.975464344,1,3,1,7,1,3,101,101,102,loc4,,1,10.0
483,12,100,0.954212666,4,6,2,2,4,4,102,102,102,loc2,,1,10.0
484,12,100,1.4648907180000001,6,6,8,8,2,7,102,102,101,loc5,loc6,1,1.0
485,12,100,1.055416346,7,7,7,5,5,1,102,101,101,loc6,,1,10.0
486,12,100,0.850740671,8,7,5,1,5,7,102,101,101,loc4,loc1,1,0.0
487,12,100,1.082144976,5,1,1,4,3,3,102,101,102,loc1,loc4,1,3.0
488,12,100,0.748133898,2,2,2,8,4,4,101,102,102,loc4,,1,10.0
489,12,100,0.623556376,4,2,4,2,4,6,102,102,102,loc6,,1,10.0
490,12,100,0.660358191,4,8,6,6,8,6,101,102,101,loc1,,1,10.0
491,12,100,1.027109385,1,7,7,5,7,6,102,101,101,loc1,loc6,1,1.0
492,12,100,1.4678463940000002,2,1,5,3,3,3,102,101,102,loc3,loc1,1,0.0
493,12,100,0.794478178,2,2,2,4,4,8,101,102,102,loc6,,1,10.0
494,12,100,0.939898252,2,1,1,7,3,3,101,101,102,loc4,loc1,1,0.0
495,12,100,1.023945332,4,3,4,2,2,6,102,102,102,loc6,loc2,1,1.0
496,12,100,1.055972099,7,5,1,7,5,7,102,101,101,loc3,,1,10.0
497,12,100,0.951359272,3,3,5,1,1,3,102,101,102,loc3,,1,10.0
498,12,100,0.8267562390000001,4,4,8,2,2,2,101,102,102,loc3,,1,10.0
499,12,100,0.799509048,6,8,8,6,2,8,102,102,101,loc5,,1,10.0
500,12,100,1.3889181609999999,3,2,4,2,4,6,102,102,102,loc6,loc1,1,0.0
501,12,100,0.818165302,6,3,5,7,7,5,101,101,101,loc2,loc1,1,0.0
502,12,100,0.8109631540000001,5,7,8,1,7,5,102,101,101,loc4,loc3,1,2.0
503,12,100,0.80836153,5,7,5,3,7,5,101,101,101,loc4,,1,10.0
504,12,100,1.885077238,7,1,1,3,3,1,101,101,102,loc1,,1,10.0
505,12,100,0.6909070009999999,8,8,8,6,6,2,102,102,101,loc6,,1,10.0
506,12,100,1.192989111,4,3,3,1,5,1,102,101,102,loc5,loc1,1,0.0
507,12,100,0.7222685809999999,4,2,8,2,2,4,101,102,102,loc3,,1,10.0
508,12,100,0.8710479740000001,6,7,3,7,5,5,101,101,101,loc3,loc1,1,0.0
509,12,100,0.793780327,4,7,8,6,6,6,101,102,101,loc1,loc2,1,1.0
510,12,100,0.75514555,6,7,7,1,7,5,102,101,101,loc4,loc1,1,0.0
511,12,100,0.570604086,7,5,7,5,1,7,102,101,101,loc5,,1,10.0
512,12,100,0.741456985,3,1,1,5,3,3,102,101,102,loc4,,1,10.0
513,12,100,0.769084454,3,1,1,3,1,7,101,101,102,loc6,,1,10.0
514,12,100,0.823604584,7,6,6,8,2,8,102,102,101,loc5,loc1,1,0.0
515,12,100,0.648278475,8,2,8,6,6,8,102,102,101,loc2,,1,10.0
516,12,100,0.8157713409999999,3,1,1,7,3,1,101,101,102,loc4,,1,10.0
517,12,100,1.084518909,8,2,3,2,2,4,101,102,102,loc1,loc3,1,2.0
518,12,100,0.6265633110000001,7,6,6,2,8,8,102,102,101,loc4,loc1,1,0.0
519,12,100,0.61076808,3,5,5,7,5,7,101,101,101,loc1,,1,10.0
520,12,100,0.8042142390000001,3,1,3,3,5,1,102,101,102,loc5,,1,10.0
521,12,100,1.005062342,8,4,4,2,1,2,101,102,102,loc1,loc5,1,2.0
522,12,100,0.50235033,1,4,2,4,4,6,102,102,102,loc6,loc1,1,0.0
523,12,100,1.103936434,8,4,6,5,6,8,101,102,101,loc2,loc4,1,3.0
524,12,100,1.037165165,2,2,4,4,6,4,102,102,102,loc5,,1,10.0
525,12,100,0.96520853,5,3,5,7,5,7,101,101,101,loc2,,1,10.0
526,12,100,1.263856888,2,1,7,3,3,1,101,101,102,loc3,loc1,1,0.0
527,12,0,0.0,3,4,2,2,2,8,101,102,102,loc6,loc1,1,0.0
528,12,100,1.677531004,3,5,7,5,7,5,101,101,101,loc1,,1,10.0
529,12,100,0.8352534770000001,7,7,7,5,1,5,102,101,101,loc5,,1,10.0
530,12,100,1.459302425,5,3,1,3,1,3,102,101,102,loc1,,1,10.0
531,12,100,0.9865326879999999,5,3,7,5,5,7,101,101,101,loc2,,1,10.0
532,12,0,0.8965833190000001,1,4,8,2,4,2,101,102,102,loc3,loc1,1,0.0
533,12,100,1.225970268,5,4,8,8,6,6,101,102,101,loc2,loc1,1,0.0
534,12,100,0.877970934,8,2,8,8,6,6,102,102,101,loc2,,1,10.0
535,12,100,0.876683474,7,6,8,6,6,4,101,102,101,loc6,loc1,1,0.0
536,12,100,0.842708349,6,1,5,7,7,7,102,101,101,loc2,loc1,1,0.0
537,12,100,0.822839737,2,3,1,1,7,3,101,101,102,loc5,loc1,1,0.0
538,12,100,0.614833355,4,2,8,2,3,2,101,102,102,loc3,loc5,1,2.0
539,12,100,0.711678267,3,2,4,2,8,2,101,102,102,loc5,loc1,1,0.0
540,12,100,1.504255295,1,3,1,3,3,5,102,101,102,loc6,,1,10.0
541,12,100,0.8087790009999999,8,6,8,6,4,5,101,102,101,loc5,loc6,1,1.0
542,12,100,0.818250895,3,1,3,1,1,7,101,101,102,loc6,,1,10.0
543,12,100,0.755033016,6,2,4,4,3,2,102,102,102,loc1,loc5,1,2.0
544,12,100,0.7984211440000001,7,5,5,5,3,7,101,101,101,loc5,,1,10.0
545,12,100,0.671876907,6,8,4,6,8,6,101,102,101,loc3,,1,10.0
546,12,100,0.6860332490000001,7,6,4,8,6,6,101,102,101,loc3,loc1,1,0.0
547,12,100,0.708195448,2,2,4,4,4,6,102,102,102,loc6,,1,10.0
548,12,100,0.677630663,4,8,2,3,2,2,101,102,102,loc2,loc4,1,3.0
549,12,100,0.987737179,4,6,4,2,4,2,102,102,102,loc2,,1,10.0
550,12,100,0.969768286,1,4,2,4,4,6,102,102,102,loc6,loc1,1,0.0
551,12,100,0.7844741340000001,4,1,3,5,3,1,102,101,102,loc4,loc1,1,0.0
552,12,100,0.7226092820000001,2,4,8,2,2,4,101,102,102,loc3,,1,10.0
553,12,100,0.72667551,3,2,1,1,3,7,101,101,102,loc6,loc2,1,1.0
554,12,100,0.699487448,3,1,1,7,3,1,101,101,102,loc4,,1,10.0
555,12,100,0.872976303,7,6,6,4,8,6,101,102,101,loc4,loc1,1,0.0
556,12,100,0.991676807,4,8,4,2,2,2,101,102,102,loc2,,1,10.0
557,12,100,0.849087954,5,5,7,3,7,5,101,101,101,loc4,,1,10.0
558,12,100,0.900463343,2,1,5,3,3,3,102,101,102,loc3,loc1,1,0.0
559,12,100,0.8899803159999999,8,8,6,2,6,8,102,102,101,loc4,,1,10.0
560,12,100,0.84802103,3,3,5,3,1,1,102,101,102,loc3,,1,10.0
561,12,100,0.747475863,2,3,1,3,5,3,102,101,102,loc5,loc1,1,0.0
562,12,100,0.8308012490000001,5,1,7,7,7,5,102,101,101,loc2,,1,10.0
563,12,100,0.758898973,2,2,8,2,3,4,101,102,102,loc3,loc5,1,2.0
564,12,100,0.850365877,3,1,2,7,1,3,101,101,102,loc4,loc3,1,2.0
565,12,100,1.053864956,7,2,8,8,6,6,102,102,101,loc2,loc1,1,0.0
566,12,100,0.693155527,8,8,6,6,6,4,101,102,101,loc6,,1,10.0
567,12,100,0.9467093940000001,5,8,8,6,8,2,102,102,101,loc6,loc1,1,0.0
568,12,100,0.590050459,8,6,6,6,4,8,101,102,101,loc5,,1,10.0
569,12,100,1.020210028,4,6,8,6,6,7,101,102,101,loc1,loc6,1,1.0
570,12,100,0.696899176,7,6,4,6,6,8,101,102,101,loc3,loc1,1,0.0
571,12,100,0.6984283920000001,2,8,6,8,8,6,102,102,101,loc1,,1,10.0
572,12,100,0.823869228,2,1,3,1,7,3,101,101,102,loc5,loc1,1,0.0
573,12,100,0.660578012,7,8,8,2,6,6,102,102,101,loc4,loc1,1,0.0
574,12,100,1.203352451,3,4,2,6,2,4,102,102,102,loc4,loc1,1,0.0
575,12,100,1.136729479,1,5,7,5,7,7,102,101,101,loc1,,1,10.0
576,12,100,0.7247686390000001,5,7,3,5,5,7,101,101,101,loc3,,1,10.0
577,12,100,0.8488891120000001,1,4,6,2,4,4,102,102,102,loc3,loc1,1,0.0
578,12,100,0.6969461440000001,2,6,6,8,8,8,102,102,101,loc1,,1,10.0
579,12,100,0.7822823520000001,1,4,2,4,8,2,101,102,102,loc5,loc1,1,0.0
580,12,100,0.760400295,3,1,1,3,7,1,101,101,102,loc5,,1,10.0
581,12,100,0.667255163,5,1,3,1,3,3,102,101,102,loc1,,1,10.0
582,12,100,0.650013208,5,5,5,7,3,7,101,101,101,loc5,,1,10.0
583,12,100,0.629505396,8,6,6,2,8,8,102,102,101,loc4,,1,10.0
584,12,100,0.6942794320000001,6,2,8,8,8,6,102,102,101,loc2,,1,10.0
585,12,100,0.587715149,7,7,1,5,5,7,102,101,101,loc3,,1,10.0
586,12,100,0.8778021340000001,1,7,7,6,7,5,102,101,101,loc1,loc4,1,3.0
587,12,100,0.75585103,4,3,1,1,7,1,101,101,102,loc5,loc1,1,0.0
588,12,100,0.739300489,8,4,6,8,6,6,101,102,101,loc2,,1,10.0
589,12,100,0.710757017,5,5,7,7,3,5,101,101,101,loc5,,1,10.0
590,12,100,1.092253447,3,3,1,5,3,1,102,101,102,loc4,,1,10.0
591,12,100,0.7296030520000001,3,8,5,7,5,5,101,101,101,loc1,loc2,1,1.0
592,12,100,0.770395994,5,2,8,6,8,8,102,102,101,loc2,loc1,1,0.0
593,12,100,0.684482336,8,1,7,5,5,7,102,101,101,loc2,loc1,1,0.0
594,12,100,0.8026335240000001,7,1,3,1,1,3,101,101,102,loc1,,1,10.0
595,12,100,0.8400440220000001,2,7,1,3,3,1,101,101,102,loc2,loc1,1,0.0
596,12,100,0.8160769940000001,8,5,5,5,7,3,101,101,101,loc6,loc1,1,0.0
597,12,100,1.016862392,3,4,2,2,4,6,102,102,102,loc6,loc1,1,0.0
598,12,100,0.969598293,5,1,2,3,3,3,102,101,102,loc1,loc3,1,2.0
599,12,100,0.65626359,3,1,3,3,1,5,102,101,102,loc6,,1,10.0
600,12,100,0.787981987,5,1,7,7,7,5,102,101,101,loc2,,1,10.0
601,12,100,1.2533133029999999,6,7,7,7,5,1,102,101,101,loc6,loc1,1,0.0
602,12,100,0.684608221,8,4,8,6,6,6,101,102,101,loc2,,1,10.0
603,12,100,0.906767607,2,8,6,8,8,6,102,102,101,loc1,,1,10.0
604,12,100,1.016205311,4,6,6,6,7,8,101,102,101,loc1,loc5,1,2.0
605,12,100,0.8169023990000001,3,3,1,7,1,1,101,101,102,loc4,,1,10.0
606,12,100,0.609622002,1,3,3,1,5,3,102,101,102,loc5,,1,10.0
607,12,100,0.99844861,5,8,8,2,6,8,102,102,101,loc4,loc1,1,0.0
608,12,100,0.7398083209999999,3,1,7,3,1,1,101,101,102,loc3,,1,10.0
609,12,100,0.807833433,2,3,1,7,3,1,101,101,102,loc4,loc1,1,0.0
610,12,100,0.829297066,8,3,7,5,5,5,101,101,101,loc2,loc1,1,0.0
611,12,100,1.217318296,1,6,2,4,4,4,102,102,102,loc2,loc1,1,0.0
612,12,100,0.649916887,1,1,7,3,3,1,101,101,102,loc3,,1,10.0
613,12,100,0.741380453,7,5,3,7,5,5,101,101,101,loc3,,1,10.0
614,12,100,0.828819036,5,8,4,6,8,6,101,102,101,loc3,loc1,1,0.0
615,12,100,0.693593025,4,8,2,2,4,2,101,102,102,loc2,,1,10.0
616,12,100,0.663110018,2,1,3,7,1,3,101,101,102,loc4,loc1,1,0.0
617,12,100,0.8299357890000001,8,6,6,8,4,6,101,102,101,loc5,,1,10.0
618,12,100,0.78260231,3,3,3,1,5,2,102,101,102,loc5,loc6,1,1.0
619,12,100,0.6887781620000001,3,3,3,5,1,1,102,101,102,loc4,,1,10.0
620,12,100,0.770220041,4,1,3,3,1,5,102,101,102,loc6,loc1,1,0.0
621,12,100,0.9689371590000001,5,5,5,7,3,7,101,101,101,loc5,,1,10.0
622,12,100,0.9116554259999999,1,4,4,4,6,2,102,102,102,loc5,loc1,1,0.0
623,12,100,0.7850739959999999,7,8,5,5,7,1,102,101,101,loc6,loc2,1,1.0
624,12,100,0.826417208,7,8,6,8,2,6,102,102,101,loc5,loc1,1,0.0
625,12,100,0.803152084,1,3,3,3,5,1,102,101,102,loc5,,1,10.0
626,12,100,0.756601095,5,7,7,7,5,1,102,101,101,loc6,,1,10.0
627,12,100,0.959323168,5,2,8,8,6,8,102,102,101,loc2,loc1,1,0.0
628,12,100,1.242738008,4,5,3,1,3,1,102,101,102,loc2,loc1,1,0.0
629,12,100,0.9019360540000001,2,8,8,6,6,8,102,102,101,loc1,,1,10.0
630,12,100,1.191394091,1,3,1,1,3,7,101,101,102,loc6,,1,10.0
631,12,0,0.641308069,8,2,2,4,4,1,101,102,102,loc1,loc6,1,1.0
632,12,100,0.752795219,5,5,7,7,1,7,102,101,101,loc5,,1,10.0
633,12,100,1.180124283,7,7,5,7,5,1,102,101,101,loc6,,1,10.0
634,12,100,0.950814962,1,6,7,7,5,7,102,101,101,loc1,loc2,1,1.0
635,12,100,0.977532148,5,8,2,6,8,8,102,102,101,loc3,loc1,1,0.0
636,12,100,0.772270441,2,8,2,4,2,4,101,102,102,loc2,,1,10.0
637,12,100,0.9310562609999999,3,2,4,2,4,6,102,102,102,loc6,loc1,1,0.0
638,12,100,1.023058176,4,1,1,3,5,3,102,101,102,loc5,loc1,1,0.0
639,12,100,0.823158741,7,6,4,6,6,8,101,102,101,loc3,loc1,1,0.0
640,12,100,0.859913349,8,2,4,2,4,2,101,102,102,loc1,,1,10.0
641,12,100,0.79864192,3,5,5,7,7,5,101,101,101,loc1,,1,10.0
642,12,100,0.8687431809999999,7,1,1,3,3,1,101,101,102,loc1,,1,10.0
643,12,100,0.7473764420000001,5,7,7,7,5,1,102,101,101,loc6,,1,10.0
644,12,100,0.878858328,4,2,1,8,4,2,101,102,102,loc4,loc3,1,2.0
645,12,100,0.9649498459999999,8,4,8,6,6,6,101,102,101,loc2,,1,10.0
646,12,100,1.247631311,2,8,2,3,4,2,101,102,102,loc2,loc4,1,3.0
647,12,100,0.950863123,8,2,3,4,2,2,101,102,102,loc1,loc3,1,2.0
648,12,100,0.8182592390000001,5,5,7,1,7,7,102,101,101,loc4,,1,10.0
649,12,100,0.9030213359999999,6,8,2,8,7,6,102,102,101,loc3,loc5,1,2.0
650,12,100,1.000404835,8,5,5,5,7,3,101,101,101,loc6,loc1,1,0.0
651,12,100,0.90581727,2,4,8,4,2,2,101,102,102,loc3,,1,10.0
652,12,100,0.615176201,2,2,4,8,4,2,101,102,102,loc4,,1,10.0
653,12,100,0.8559412959999999,8,4,2,1,4,2,101,102,102,loc1,loc4,1,3.0
654,12,100,0.655387163,2,2,8,4,2,4,101,102,102,loc3,,1,10.0
655,12,100,0.702140093,1,4,4,4,6,2,102,102,102,loc5,loc1,1,0.0
656,12,100,0.859623432,7,6,8,2,6,8,102,102,101,loc4,loc1,1,0.0
657,12,100,0.747003078,5,5,7,7,5,3,101,101,101,loc6,,1,10.0
658,12,100,0.626514673,6,8,8,2,8,6,102,102,101,loc4,,1,10.0
659,12,100,0.978626013,4,1,5,3,3,1,102,101,102,loc3,loc1,1,0.0
660,12,100,1.08018136,1,1,4,7,1,3,101,101,102,loc4,loc3,1,2.0
661,12,100,0.6061241629999999,6,8,8,6,2,8,102,102,101,loc5,,1,10.0
662,12,100,0.854906321,2,8,6,8,8,5,102,102,101,loc1,loc6,1,1.0
663,12,100,0.6263031960000001,5,7,5,3,5,7,101,101,101,loc4,,1,10.0
664,12,100,0.835089207,3,3,1,5,3,1,102,101,102,loc4,,1,10.0
665,12,100,0.547148466,7,7,7,1,5,5,102,101,101,loc4,,1,10.0
666,12,100,0.598679304,6,4,6,8,6,8,101,102,101,loc2,,1,10.0
667,12,100,0.748166323,2,4,2,2,4,8,101,102,102,loc6,,1,10.0
668,12,100,0.783569098,4,1,3,3,1,5,102,101,102,loc6,loc1,1,0.0
669,12,100,0.665625095,5,6,6,8,4,8,101,102,101,loc5,loc1,1,0.0
670,12,100,0.708430052,1,4,2,4,2,8,101,102,102,loc6,loc1,1,0.0
671,12,100,0.6739172940000001,1,1,5,3,3,3,102,101,102,loc3,,1,10.0
672,12,100,0.8240828509999999,7,5,3,5,7,5,101,101,101,loc3,,1,10.0
673,12,100,0.676834345,6,7,5,7,3,5,101,101,101,loc5,loc1,1,0.0
674,12,100,1.110945225,2,7,8,8,6,6,102,102,101,loc1,loc2,1,1.0
675,12,100,0.7322378159999999,4,3,3,5,1,1,102,101,102,loc4,loc1,1,0.0
676,12,100,0.584390402,3,1,5,1,3,3,102,101,102,loc3,,1,10.0
677,12,100,0.6824896340000001,5,4,6,8,6,8,101,102,101,loc2,loc1,1,0.0
678,12,100,0.680591345,7,7,5,5,3,5,101,101,101,loc5,,1,10.0
679,12,100,0.686680555,7,5,7,5,5,3,101,101,101,loc6,,1,10.0
680,12,100,0.740801811,5,5,3,5,8,7,101,101,101,loc3,loc5,1,2.0
681,12,100,0.684272289,3,7,5,8,5,5,101,101,101,loc1,loc4,1,3.0
682,12,100,0.934349298,2,2,8,2,4,4,101,102,102,loc3,,1,10.0
683,12,100,0.88237834,4,3,5,1,3,1,102,101,102,loc3,loc1,1,0.0
684,12,100,0.6243951320000001,3,3,3,1,5,1,102,101,102,loc5,,1,10.0
685,12,100,1.033194065,3,2,2,6,4,4,102,102,102,loc4,loc1,1,0.0
686,12,100,1.081282377,6,4,4,4,2,2,102,102,102,loc1,,1,10.0
687,12,100,1.343257427,8,2,2,2,4,4,101,102,102,loc1,,1,10.0
688,12,100,0.715202332,5,3,7,5,7,5,101,101,101,loc2,,1,10.0
689,12,100,0.76403904,7,5,5,5,3,7,101,101,101,loc5,,1,10.0
690,12,100,0.8147809509999999,1,4,4,2,8,2,101,102,102,loc5,loc1,1,0.0
691,12,100,0.735509396,4,3,2,2,4,6,102,102,102,loc6,loc2,1,1.0
692,12,100,0.827646732,5,7,7,1,7,5,102,101,101,loc4,,1,10.0
693,12,100,0.915743113,2,4,4,2,6,4,102,102,102,loc5,,1,10.0
694,12,100,1.2011167999999999,3,1,3,3,1,5,102,101,102,loc6,,1,10.0
695,12,100,0.8904392720000001,4,5,3,1,1,3,102,101,102,loc2,loc1,1,0.0
696,12,100,1.3398931029999999,6,8,6,8,2,7,102,102,101,loc5,loc6,1,1.0
697,12,100,0.895785332,1,7,7,7,6,5,102,101,101,loc1,loc5,1,2.0
698,12,100,0.9891963009999999,4,4,2,4,2,6,102,102,102,loc6,,1,10.0
699,12,100,0.6871922020000001,7,8,4,6,6,6,101,102,101,loc3,loc1,1,0.0
700,12,100,0.7093238829999999,1,5,3,3,3,1,102,101,102,loc2,,1,10.0
701,12,100,0.9060492520000001,3,7,1,4,1,1,101,101,102,loc2,loc4,1,3.0
702,12,100,0.7674202920000001,3,3,1,1,3,5,102,101,102,loc6,,1,10.0
703,12,100,0.8781859870000001,8,4,2,2,4,2,101,102,102,loc1,,1,10.0
704,12,100,0.9083013529999999,1,5,8,7,7,5,102,101,101,loc1,loc3,1,2.0
705,12,100,0.797668457,5,7,1,7,5,7,102,101,101,loc3,,1,10.0
706,12,100,0.731089115,1,4,4,2,8,2,101,102,102,loc5,loc1,1,0.0
707,12,100,0.7832243440000001,3,7,5,5,7,5,101,101,101,loc1,,1,10.0
708,12,100,0.669319391,3,4,4,6,2,2,102,102,102,loc4,loc1,1,0.0
709,12,100,0.652140856,7,6,2,6,8,8,102,102,101,loc3,loc1,1,0.0
710,12,100,0.699637175,7,4,8,6,6,6,101,102,101,loc2,loc1,1,0.0
711,12,100,0.7770676609999999,6,8,6,4,6,8,101,102,101,loc4,,1,10.0
712,12,100,0.707123756,2,3,3,1,3,5,102,101,102,loc6,loc1,1,0.0
713,12,100,0.592536926,3,7,7,5,5,5,101,101,101,loc1,,1,10.0
714,12,100,0.585998774,3,4,2,6,4,2,102,102,102,loc4,loc1,1,0.0
715,12,100,0.612185955,7,4,6,8,6,6,101,102,101,loc2,loc1,1,0.0
716,12,100,0.7890374659999999,3,2,8,4,2,2,101,102,102,loc3,loc1,1,0.0
717,12,100,0.663027287,8,2,8,8,6,6,102,102,101,loc2,,1,10.0
718,12,100,0.557781935,6,4,8,6,8,6,101,102,101,loc2,,1,10.0
719,12,100,1.26930213,1,2,4,4,2,8,101,102,102,loc6,loc1,1,0.0
720,12,100,1.097221136,4,8,6,6,6,8,101,102,101,loc1,,1,10.0
721,12,100,1.46661067,5,8,6,8,4,6,101,102,101,loc5,loc1,1,0.0
722,12,100,0.913123131,5,1,3,3,4,1,102,101,102,loc1,loc5,1,2.0
723,12,100,0.8137578959999999,1,4,4,2,4,6,102,102,102,loc6,loc1,1,0.0
724,12,100,0.95046711,3,3,2,5,1,3,102,101,102,loc4,loc3,1,2.0
725,12,100,0.509849787,7,1,4,3,1,1,101,101,102,loc1,loc3,1,2.0
726,12,100,0.607377291,8,6,2,8,6,8,102,102,101,loc3,,1,10.0
727,12,100,0.552146196,3,2,8,2,2,4,101,102,102,loc3,loc1,1,0.0
728,12,100,0.655638933,5,1,7,7,7,5,102,101,101,loc2,,1,10.0
729,12,100,0.68309617,1,1,5,3,3,3,102,101,102,loc3,,1,10.0
730,12,100,0.841270208,8,8,6,2,6,8,102,102,101,loc4,,1,10.0
731,12,100,0.521309853,2,2,8,2,4,4,101,102,102,loc3,,1,10.0
732,12,100,0.5975723270000001,4,2,4,2,8,2,101,102,102,loc5,,1,10.0
733,12,100,0.567026138,2,4,2,2,4,8,101,102,102,loc6,,1,10.0
734,12,0,0.98576045,4,1,3,1,3,5,102,101,102,loc6,loc1,1,0.0
735,12,100,0.867784023,5,7,7,5,1,7,102,101,101,loc5,,1,10.0
736,12,100,0.702515841,1,2,4,8,2,4,101,102,102,loc4,loc1,1,0.0
737,12,100,0.687959671,1,3,1,3,5,3,102,101,102,loc5,,1,10.0
738,12,100,0.778146267,2,3,3,1,5,3,102,101,102,loc5,loc1,1,0.0
739,12,100,0.772260666,3,6,2,2,4,4,102,102,102,loc2,loc1,1,0.0
740,12,100,0.814990997,6,7,3,7,5,5,101,101,101,loc3,loc1,1,0.0
741,12,100,0.76375699,7,8,8,6,2,6,102,102,101,loc5,loc1,1,0.0
742,12,100,0.7385094170000001,5,7,5,3,7,5,101,101,101,loc4,,1,10.0
743,12,100,0.88256216,3,1,7,3,2,1,101,101,102,loc3,loc5,1,2.0
744,12,100,0.900627375,5,7,7,7,1,5,102,101,101,loc5,,1,10.0
745,12,0,0.8180444240000001,6,6,8,8,2,7,102,102,101,loc5,loc6,1,1.0
746,12,100,0.734801292,8,5,7,3,5,5,101,101,101,loc4,loc1,1,0.0
747,12,100,0.994931459,6,8,6,8,6,4,101,102,101,loc6,,1,10.0
748,12,100,0.640295029,2,4,2,2,4,8,101,102,102,loc6,,1,10.0
749,12,100,0.79247427,8,6,6,2,8,8,102,102,101,loc4,,1,10.0
750,12,100,0.7539837359999999,8,4,8,6,6,6,101,102,101,loc2,,1,10.0
751,12,100,0.701368332,4,6,6,8,6,8,101,102,101,loc1,,1,10.0
752,12,100,0.7987804409999999,6,5,7,7,1,7,102,101,101,loc5,loc1,1,0.0
753,12,100,0.648177385,1,1,7,3,1,3,101,101,102,loc3,,1,10.0
754,12,100,0.635714531,3,2,8,4,2,2,101,102,102,loc3,loc1,1,0.0
755,12,100,0.827745438,1,5,7,5,7,8,102,101,101,loc1,loc6,1,1.0
756,12,100,0.668532372,4,6,8,5,8,6,101,102,101,loc1,loc4,1,3.0
757,12,100,1.011357307,6,2,4,4,2,4,102,102,102,loc1,,1,10.0
758,12,100,0.74403739,4,8,2,1,2,4,101,102,102,loc2,loc4,1,3.0
759,12,100,0.819400072,3,3,3,1,1,5,102,101,102,loc6,,1,10.0
760,12,100,0.676231384,7,4,6,8,6,6,101,102,101,loc2,loc1,1,0.0
761,12,100,0.791044235,1,7,3,1,1,3,101,101,102,loc2,,1,10.0
762,12,100,0.736356497,3,3,1,5,1,3,102,101,102,loc4,,1,10.0
763,12,100,1.052509069,6,7,5,1,7,7,102,101,101,loc4,loc1,1,0.0
764,12,100,0.755902052,3,7,1,3,1,1,101,101,102,loc2,,1,10.0
765,12,100,0.527386427,3,3,1,7,1,1,101,101,102,loc4,,1,10.0
766,12,100,0.863522053,7,8,6,6,6,4,101,102,101,loc6,loc1,1,0.0
767,12,100,0.798220158,7,5,7,5,1,7,102,101,101,loc5,,1,10.0
768,12,100,0.703633547,7,8,7,5,5,1,102,101,101,loc6,loc2,1,1.0
769,12,100,0.7290790079999999,8,2,6,8,6,8,102,102,101,loc2,,1,10.0
770,12,100,0.533920527,7,7,1,5,7,5,102,101,101,loc3,,1,10.0
771,12,100,0.506022215,4,1,1,7,3,1,101,101,102,loc4,loc1,1,0.0
772,12,100,0.662819386,2,5,8,6,8,8,102,102,101,loc1,loc2,1,1.0
773,12,100,0.662341356,2,6,8,8,6,8,102,102,101,loc1,,1,10.0
774,12,100,0.585126162,5,4,6,6,8,8,101,102,101,loc2,loc1,1,0.0
775,12,100,1.02725625,2,1,7,3,3,1,101,101,102,loc3,loc1,1,0.0
776,12,100,0.5392949579999999,2,4,2,4,2,8,101,102,102,loc6,,1,10.0
777,12,100,0.5475311279999999,7,3,3,1,1,1,101,101,102,loc1,,1,10.0
778,12,100,0.85897851,8,7,5,7,5,1,102,101,101,loc6,loc1,1,0.0
779,12,100,0.8377060890000001,1,6,2,4,4,4,102,102,102,loc2,loc1,1,0.0
780,12,100,1.361969948,1,7,5,5,8,7,102,101,101,loc1,loc5,1,2.0
781,12,100,0.872629166,1,3,5,3,1,3,102,101,102,loc3,,1,10.0
782,12,100,0.983284235,8,6,7,4,6,6,101,102,101,loc4,loc3,1,2.0
783,12,100,0.629298449,8,5,7,5,1,7,102,101,101,loc5,loc1,1,0.0
784,12,100,0.68944335,3,4,4,2,2,6,102,102,102,loc6,loc1,1,0.0
785,12,100,0.8115615840000001,6,7,5,1,7,7,102,101,101,loc4,loc1,1,0.0
786,12,100,0.868376255,6,4,4,2,4,2,102,102,102,loc1,,1,10.0
787,12,100,0.727089643,6,1,7,5,7,7,102,101,101,loc2,loc1,1,0.0
788,12,100,0.6272223000000001,5,5,7,1,7,7,102,101,101,loc4,,1,10.0
789,12,100,0.572057962,5,1,7,5,7,7,102,101,101,loc2,,1,10.0
790,12,100,0.8142342570000001,8,7,8,6,6,2,102,102,101,loc6,loc2,1,1.0
791,12,100,0.655695438,8,6,6,4,8,6,101,102,101,loc4,,1,10.0
792,12,100,0.702473164,6,1,5,7,7,7,102,101,101,loc2,loc1,1,0.0
793,12,100,0.7639601229999999,2,1,1,3,3,7,101,101,102,loc6,loc1,1,0.0
794,12,100,0.646696329,8,2,4,2,4,2,101,102,102,loc1,,1,10.0
795,12,100,0.622903347,1,5,3,3,1,3,102,101,102,loc2,,1,10.0
796,12,100,0.798982382,8,8,6,6,4,5,101,102,101,loc5,loc6,1,1.0
797,12,100,0.944427252,3,7,5,6,7,5,101,101,101,loc1,loc4,1,3.0
798,12,100,0.932497025,3,2,8,2,4,2,101,102,102,loc3,loc1,1,0.0
799,12,100,0.912592173,7,4,6,8,6,6,101,102,101,loc2,loc1,1,0.0
800,12,100,0.741344929,3,5,3,2,3,1,102,101,102,loc2,loc4,1,3.0
801,12,100,0.7774374490000001,2,7,3,3,1,1,101,101,102,loc2,loc1,1,0.0
802,12,100,0.999572039,4,6,6,8,6,8,101,102,101,loc1,,1,10.0
803,12,100,1.024890184,7,6,8,6,6,4,101,102,101,loc6,loc1,1,0.0
804,12,100,0.565608025,7,8,2,6,6,8,102,102,101,loc3,loc1,1,0.0
805,12,100,0.668417931,2,3,3,5,1,3,102,101,102,loc4,loc1,1,0.0
806,12,100,0.615203142,4,2,2,8,4,2,101,102,102,loc4,,1,10.0
807,12,100,0.568040371,8,6,6,8,6,4,101,102,101,loc6,,1,10.0
808,12,100,0.894881248,6,5,3,7,5,7,101,101,101,loc3,loc1,1,0.0
809,12,100,0.6123082639999999,4,1,1,3,7,1,101,101,102,loc5,loc1,1,0.0
810,12,100,0.5490741729999999,5,1,5,7,7,7,102,101,101,loc2,,1,10.0
811,12,100,0.8005356790000001,1,4,4,8,2,2,101,102,102,loc4,loc1,1,0.0
812,12,100,0.8340113159999999,7,3,1,1,1,4,101,101,102,loc1,loc6,1,1.0
813,12,100,0.6901023390000001,2,4,4,2,2,8,101,102,102,loc6,,1,10.0
814,12,100,0.9522781370000001,6,6,6,8,8,4,101,102,101,loc6,,1,10.0
815,12,100,0.59164834,3,3,1,1,5,3,102,101,102,loc5,,1,10.0
816,12,100,0.629119635,4,1,3,1,3,5,102,101,102,loc6,loc1,1,0.0
817,12,100,0.645966291,8,2,2,2,4,4,101,102,102,loc1,,1,10.0
818,12,100,0.6294093129999999,5,7,1,7,7,5,102,101,101,loc3,,1,10.0
819,12,0,0.541515589,7,3,2,1,3,1,101,101,102,loc1,loc3,1,2.0
820,12,100,0.713712215,6,6,8,8,4,6,101,102,101,loc5,,1,10.0
821,12,100,0.6224141120000001,2,4,2,2,8,4,101,102,102,loc5,,1,10.0
822,12,100,0.6072452070000001,2,4,6,4,4,2,102,102,102,loc3,,1,10.0
823,12,100,0.7040963170000001,6,7,7,5,3,5,101,101,101,loc5,loc1,1,0.0
824,12,100,0.733495235,2,6,8,8,6,8,102,102,101,loc1,,1,10.0
825,12,100,0.7055878640000001,4,1,3,1,7,1,101,101,102,loc5,loc1,1,0.0
826,12,100,0.707044363,2,4,2,8,2,4,101,102,102,loc4,,1,10.0
827,12,100,0.855905294,6,6,6,8,8,4,101,102,101,loc6,,1,10.0
828,12,100,0.45533514,1,3,5,3,1,3,102,101,102,loc3,,1,10.0
829,12,100,1.030806065,6,7,5,1,7,7,102,101,101,loc4,loc1,1,0.0
830,12,100,0.594813347,6,2,8,8,8,6,102,102,101,loc2,,1,10.0
831,12,100,0.668337107,3,3,1,3,5,1,102,101,102,loc5,,1,10.0
832,12,100,0.927142382,1,4,6,4,4,2,102,102,102,loc3,loc1,1,0.0
833,12,100,0.7478961940000001,8,3,2,4,2,2,101,102,102,loc1,loc2,1,1.0
834,12,100,0.579342127,5,7,7,7,1,5,102,101,101,loc5,,1,10.0
835,12,100,0.8535041809999999,3,3,1,3,1,5,102,101,102,loc6,,1,10.0
836,12,100,0.604932308,4,2,4,6,4,2,102,102,102,loc4,,1,10.0
837,12,100,0.57446003,4,2,6,2,4,4,102,102,102,loc3,,1,10.0
838,12,100,0.7925791740000001,6,4,6,6,8,8,101,102,101,loc2,,1,10.0
839,12,100,0.822679996,5,7,3,5,6,7,101,101,101,loc3,loc5,1,2.0
840,12,100,1.1091668609999998,3,1,3,1,5,3,102,101,102,loc5,,1,10.0
841,12,100,0.6538970470000001,8,2,4,2,2,4,101,102,102,loc1,,1,10.0
842,12,100,0.50925684,4,6,2,2,4,4,102,102,102,loc2,,1,10.0
843,12,100,0.494104624,1,3,7,3,1,1,101,101,102,loc3,,1,10.0
844,12,100,0.500318527,5,3,4,1,1,3,102,101,102,loc1,loc3,1,2.0
845,12,100,0.601756334,7,5,5,7,5,3,101,101,101,loc6,,1,10.0
846,12,100,0.77119565,4,2,3,6,4,2,102,102,102,loc4,loc3,1,2.0
847,12,100,0.665288925,6,4,6,8,8,6,101,102,101,loc2,,1,10.0
848,12,100,0.680779219,4,1,4,2,2,8,101,102,102,loc6,loc2,1,1.0
849,12,100,0.591017008,1,2,4,8,2,4,101,102,102,loc4,loc1,1,0.0
850,12,100,0.648465872,8,6,8,4,6,6,101,102,101,loc4,,1,10.0
851,12,100,0.711920023,1,8,7,5,5,7,102,101,101,loc1,loc2,1,1.0
852,12,100,0.7013745309999999,5,7,5,7,7,1,102,101,101,loc6,,1,10.0
853,12,100,0.6069142820000001,2,6,8,5,8,8,102,102,101,loc1,loc4,1,3.0
854,12,100,0.559699297,5,8,8,6,2,8,102,102,101,loc5,loc1,1,0.0
855,12,100,1.015114069,3,6,2,4,4,2,102,102,102,loc2,loc1,1,0.0
856,12,100,0.487902641,1,1,1,7,3,3,101,101,102,loc4,,1,10.0
857,12,100,0.594094276,4,1,7,1,1,3,101,101,102,loc3,loc1,1,0.0
858,12,100,0.575584173,8,2,6,8,8,6,102,102,101,loc2,,1,10.0
859,12,100,0.569774389,6,8,6,4,6,8,101,102,101,loc4,,1,10.0
860,12,100,0.712586403,6,7,7,5,1,7,102,101,101,loc5,loc1,1,0.0
861,12,100,0.561988354,5,8,6,4,8,6,101,102,101,loc4,loc1,1,0.0
862,12,100,0.63677907,2,4,4,2,2,8,101,102,102,loc6,,1,10.0
863,12,100,0.79690218,6,8,8,6,8,2,102,102,101,loc6,,1,10.0
864,12,100,0.54633522,8,6,6,2,8,8,102,102,101,loc4,,1,10.0
865,12,100,0.693860292,2,4,6,2,4,4,102,102,102,loc3,,1,10.0
866,12,100,0.66792345,5,2,8,8,6,8,102,102,101,loc2,loc1,1,0.0
867,12,100,0.466697454,1,3,1,1,7,3,101,101,102,loc5,,1,10.0
868,12,100,1.441538334,3,2,4,2,2,8,101,102,102,loc6,loc1,1,0.0
869,12,100,0.628751993,4,2,4,2,6,4,102,102,102,loc5,,1,10.0
870,12,100,0.7128863329999999,6,7,7,7,5,1,102,101,101,loc6,loc1,1,0.0
871,12,100,1.002338886,1,1,3,3,5,3,102,101,102,loc5,,1,10.0
872,12,100,0.603722334,1,7,7,5,7,5,102,101,101,loc1,,1,10.0
873,12,100,0.772517204,8,4,6,7,6,6,101,102,101,loc2,loc4,1,3.0
874,12,100,1.047367573,2,3,1,7,1,3,101,101,102,loc4,loc1,1,0.0
875,12,100,0.938731194,8,7,1,5,5,7,102,101,101,loc3,loc1,1,0.0
876,12,100,0.67067337,2,2,4,4,8,2,101,102,102,loc5,,1,10.0
877,12,100,1.029506683,6,7,1,7,7,5,102,101,101,loc3,loc1,1,0.0
878,12,100,0.605536222,6,4,6,6,8,8,101,102,101,loc2,,1,10.0
879,12,100,0.5509893889999999,5,3,5,5,7,7,101,101,101,loc2,,1,10.0
880,12,100,0.646496058,5,7,3,5,7,5,101,101,101,loc3,,1,10.0
881,12,100,0.80196166,5,1,3,3,1,3,102,101,102,loc1,,1,10.0
882,12,100,0.503387213,6,8,4,6,6,8,101,102,101,loc3,,1,10.0
883,12,100,0.9849488740000001,3,1,3,1,7,2,101,101,102,loc5,loc6,1,1.0
884,12,100,1.1149158479999999,8,8,8,6,6,2,102,102,101,loc6,,1,10.0
885,12,100,0.49552035299999997,7,7,3,5,5,5,101,101,101,loc3,,1,10.0
886,12,100,1.0130727290000001,5,1,3,3,3,2,102,101,102,loc1,loc6,1,1.0
887,12,100,0.82973218,7,8,8,6,6,2,102,102,101,loc6,loc1,1,0.0
888,12,100,0.678468227,2,6,8,6,8,8,102,102,101,loc1,,1,10.0
889,12,100,0.9486041070000001,4,3,5,1,1,3,102,101,102,loc3,loc1,1,0.0
890,12,100,0.871951818,6,5,5,7,3,7,101,101,101,loc5,loc1,1,0.0
891,12,100,0.7907149790000001,7,3,3,1,2,1,101,101,102,loc1,loc5,1,2.0
892,12,100,0.716208458,3,2,2,2,4,8,101,102,102,loc6,loc1,1,0.0
893,12,100,0.876916885,6,1,5,7,7,7,102,101,101,loc2,loc1,1,0.0
894,12,100,0.599645138,8,2,2,4,4,2,101,102,102,loc1,,1,10.0
895,12,100,0.87316227,1,3,7,1,2,3,101,101,102,loc3,loc5,1,2.0
896,12,100,0.771851301,3,3,3,5,1,1,102,101,102,loc4,,1,10.0
897,12,100,0.701906681,6,7,7,5,1,7,102,101,101,loc5,loc1,1,0.0
898,12,100,0.651452303,3,8,2,2,4,2,101,102,102,loc2,loc1,1,0.0
899,12,100,0.5988514420000001,4,1,1,7,3,1,101,101,102,loc4,loc1,1,0.0
900,12,100,0.8611583709999999,1,1,3,3,1,7,101,101,102,loc6,,1,10.0
901,12,100,0.559956074,6,4,6,6,8,8,101,102,101,loc2,,1,10.0
902,12,100,0.782719135,2,7,3,1,1,3,101,101,102,loc2,loc1,1,0.0
903,12,100,0.648787975,2,6,2,4,4,4,102,102,102,loc2,,1,10.0
904,12,100,0.576949358,5,8,8,8,2,6,102,102,101,loc5,loc1,1,0.0
905,12,100,0.523146391,2,6,6,8,8,8,102,102,101,loc1,,1,10.0
906,12,100,0.8158960340000001,4,1,4,2,4,6,102,102,102,loc6,loc2,1,1.0
907,12,100,0.496612072,3,5,5,5,7,7,101,101,101,loc1,,1,10.0
908,12,100,0.67017436,2,3,3,1,7,1,101,101,102,loc5,loc1,1,0.0
909,12,100,0.9089233879999999,7,6,4,8,6,6,101,102,101,loc3,loc1,1,0.0
910,12,100,0.593621254,8,7,7,1,5,5,102,101,101,loc4,loc1,1,0.0
911,12,100,0.719772339,4,4,4,2,2,6,102,102,102,loc6,,1,10.0
912,12,100,0.567883968,5,7,7,5,7,1,102,101,101,loc6,,1,10.0
913,12,100,0.8107423779999999,4,1,7,1,1,3,101,101,102,loc3,loc1,1,0.0
914,12,100,0.508125067,5,5,3,5,7,7,101,101,101,loc3,,1,10.0
915,12,100,0.697002172,5,6,8,8,6,4,101,102,101,loc6,loc1,1,0.0
916,12,100,0.71114707,1,1,3,3,5,3,102,101,102,loc5,,1,10.0
917,12,100,0.779905319,1,3,3,3,5,2,102,101,102,loc5,loc6,1,1.0
918,12,100,0.709968328,4,6,8,6,8,6,101,102,101,loc1,,1,10.0
919,12,100,0.635479212,1,3,3,1,5,3,102,101,102,loc5,,1,10.0
920,12,100,0.519686222,2,4,4,6,4,2,102,102,102,loc4,,1,10.0
921,12,100,0.547835112,4,8,2,2,4,2,101,102,102,loc2,,1,10.0
922,12,100,0.635982752,2,3,7,1,3,1,101,101,102,loc3,loc1,1,0.0
923,12,100,0.659529448,5,5,7,3,5,7,101,101,101,loc4,,1,10.0
924,12,100,0.738968134,4,6,2,2,4,4,102,102,102,loc2,,1,10.0
925,12,100,1.367052317,3,5,3,4,1,1,102,101,102,loc2,loc4,1,3.0
926,12,100,0.605625153,7,5,7,5,1,7,102,101,101,loc5,,1,10.0
927,12,100,0.578449011,4,1,7,3,1,1,101,101,102,loc3,loc1,1,0.0
928,12,100,0.849285126,2,8,8,6,8,6,102,102,101,loc1,,1,10.0
929,12,100,0.512718201,5,7,3,7,5,5,101,101,101,loc3,,1,10.0
930,12,100,0.717584133,8,6,7,4,6,6,101,102,101,loc4,loc3,1,2.0
931,12,100,0.6583383079999999,1,3,3,1,1,7,101,101,102,loc6,,1,10.0
932,12,100,0.6851351259999999,8,5,7,7,1,5,102,101,101,loc5,loc1,1,0.0
933,12,100,0.943250895,2,7,8,6,6,8,102,102,101,loc1,loc2,1,1.0
934,12,100,0.587264299,2,3,1,3,7,1,101,101,102,loc5,loc1,1,0.0
935,12,100,0.693437815,7,4,6,6,6,8,101,102,101,loc2,loc1,1,0.0
936,12,100,1.06699419,3,2,2,4,2,8,101,102,102,loc6,loc1,1,0.0
937,12,100,0.58161664,1,2,4,4,4,6,102,102,102,loc6,loc1,1,0.0
938,12,100,0.555775404,2,7,1,1,3,3,101,101,102,loc2,loc1,1,0.0
939,12,100,0.575233221,8,8,6,6,8,2,102,102,101,loc6,,1,10.0
940,12,0,0.897361994,1,3,1,3,5,3,102,101,102,loc5,,1,10.0
941,12,100,0.831385374,4,6,8,7,6,6,101,102,101,loc1,loc4,1,3.0
942,12,100,0.735440016,1,3,7,1,1,3,101,101,102,loc3,,1,10.0
943,12,100,0.7915549279999999,6,8,8,2,6,8,102,102,101,loc4,,1,10.0
944,12,100,0.560935259,6,5,7,7,7,1,102,101,101,loc6,loc1,1,0.0
945,12,100,0.704440355,3,5,7,5,6,7,101,101,101,loc1,loc5,1,2.0
946,12,100,0.6892282959999999,2,2,4,4,6,4,102,102,102,loc5,,1,10.0
947,12,100,0.563412189,2,8,4,4,2,2,101,102,102,loc2,,1,10.0
948,12,100,0.534198284,3,4,2,8,2,2,101,102,102,loc4,loc1,1,0.0
949,12,100,0.630376339,6,4,1,2,4,4,102,102,102,loc1,loc3,1,2.0
950,12,100,0.5985436439999999,6,1,7,5,7,7,102,101,101,loc2,loc1,1,0.0
951,12,100,0.472746134,8,6,2,6,8,8,102,102,101,loc3,,1,10.0
952,12,100,1.182945251,8,6,4,6,5,8,101,102,101,loc3,loc5,1,2.0
953,12,100,0.892915487,5,3,3,1,3,2,102,101,102,loc1,loc6,1,1.0
954,12,100,0.646923542,6,7,7,3,5,5,101,101,101,loc4,loc1,1,0.0
955,12,100,0.870432377,3,7,5,5,5,7,101,101,101,loc1,,1,10.0
956,12,100,0.789203167,5,7,7,1,5,7,102,101,101,loc4,,1,10.0
957,12,100,0.48667812299999996,4,4,6,2,4,2,102,102,102,loc3,,1,10.0
958,12,100,0.560827255,3,4,2,6,2,4,102,102,102,loc4,loc1,1,0.0
959,12,100,0.640341997,6,8,6,4,8,6,101,102,101,loc4,,1,10.0
960,13,100,1.198788404,4,4,2,4,2,6,102,102,102,loc6,,5,10.0
961,13,100,0.9200401309999999,6,8,2,8,8,6,102,102,101,loc3,,5,10.0
962,13,100,0.7007622720000001,7,5,5,7,3,5,101,101,101,loc5,,5,10.0
963,13,100,1.122264385,5,7,5,7,5,3,101,101,101,loc6,,5,10.0
964,13,100,0.834254265,8,6,8,2,8,6,102,102,101,loc4,,5,10.0
965,13,100,0.89833951,4,4,2,2,8,2,101,102,102,loc5,,5,10.0
966,13,100,1.1244239809999999,2,8,4,2,3,2,101,102,102,loc2,loc5,5,0.0
967,13,100,1.22042346,3,3,1,7,1,1,101,101,102,loc4,,5,10.0
968,13,100,0.777029037,6,8,4,6,6,8,101,102,101,loc3,,5,10.0
969,13,100,0.79507637,7,7,1,7,5,5,102,101,101,loc3,,5,10.0
970,13,100,0.837269068,1,3,3,1,7,1,101,101,102,loc5,,5,10.0
971,13,100,0.8813462259999999,6,8,4,8,5,6,101,102,101,loc3,loc5,5,0.0
972,13,100,1.279395342,4,2,4,2,1,8,101,102,102,loc6,loc5,5,0.0
973,13,100,0.76930809,6,4,2,2,4,4,102,102,102,loc1,,5,10.0
974,13,100,0.772139072,7,1,5,7,6,7,102,101,101,loc2,loc5,5,0.0
975,13,100,1.022795439,1,1,3,3,3,5,102,101,102,loc6,,5,10.0
976,13,100,0.8947649,1,5,3,3,1,3,102,101,102,loc2,,5,10.0
977,13,100,0.764861107,6,2,8,8,6,8,102,102,101,loc2,,5,10.0
978,13,100,0.815674305,7,5,3,5,6,7,101,101,101,loc3,loc5,5,0.0
979,13,100,1.028373003,5,7,5,7,8,1,102,101,101,loc6,loc5,5,0.0
980,13,100,0.7884082790000001,8,2,2,4,2,4,101,102,102,loc1,,5,10.0
981,13,100,1.06247282,2,2,4,4,3,6,102,102,102,loc6,loc5,5,0.0
982,13,100,1.59711504,5,7,7,5,7,1,102,101,101,loc6,,5,10.0
983,13,100,1.070348024,3,2,2,4,8,2,101,102,102,loc5,loc1,5,2.0
984,13,100,1.005021334,5,7,7,3,6,5,101,101,101,loc4,loc5,5,0.0
985,13,100,1.038395405,6,4,2,4,1,4,102,102,102,loc1,loc5,5,0.0
986,13,100,0.7584407329999999,2,4,8,2,1,4,101,102,102,loc3,loc5,5,0.0
987,13,100,0.681208611,4,6,4,4,1,2,102,102,102,loc2,loc5,5,0.0
988,13,100,0.907328844,4,3,2,2,2,8,101,102,102,loc6,loc2,5,3.0
989,13,100,0.7446661,7,1,5,7,6,7,102,101,101,loc2,loc5,5,0.0
990,13,100,0.868139744,1,3,4,7,1,1,101,101,102,loc4,loc3,5,2.0
991,13,100,1.01487112,7,1,7,7,5,5,102,101,101,loc2,,5,10.0
992,13,100,0.727639675,8,2,4,2,2,4,101,102,102,loc1,,5,10.0
993,13,100,1.140412569,4,2,2,6,3,4,102,102,102,loc4,loc5,5,0.0
994,13,100,0.775680065,8,6,6,6,7,4,101,102,101,loc6,loc5,5,0.0
995,13,100,1.306554079,1,7,3,3,1,1,101,101,102,loc2,,5,10.0
996,13,100,1.011747122,7,5,7,7,1,5,102,101,101,loc5,,5,10.0
997,13,100,1.100400925,4,2,2,8,3,2,101,102,102,loc4,loc5,5,0.0
998,13,100,1.181714058,4,4,6,2,2,4,102,102,102,loc3,,5,10.0
999,13,100,0.811684132,7,1,3,1,1,3,101,101,102,loc1,,5,10.0
1000,13,100,0.892427683,3,5,7,5,8,5,101,101,101,loc1,loc5,5,0.0
1001,13,100,1.042509317,2,4,2,2,8,3,101,102,102,loc5,loc6,5,1.0
1002,13,100,0.8258233070000001,2,2,6,4,3,4,102,102,102,loc3,loc5,5,0.0
1003,13,100,0.854585171,7,1,5,7,7,5,102,101,101,loc2,,5,10.0
1004,13,100,0.958016396,1,5,5,8,7,7,102,101,101,loc1,loc4,5,1.0
1005,13,100,1.052714109,5,7,5,3,5,7,101,101,101,loc4,,5,10.0
1006,13,100,1.048159361,3,1,1,1,7,3,101,101,102,loc5,,5,10.0
1007,13,100,0.951408148,8,8,6,7,2,6,102,102,101,loc5,loc4,5,1.0
1008,13,100,0.938712835,8,6,8,2,7,6,102,102,101,loc4,loc5,5,0.0
1009,13,100,0.718797445,5,5,6,7,3,7,101,101,101,loc5,loc3,5,2.0
1010,13,100,0.875528812,5,1,7,8,5,7,102,101,101,loc2,loc4,5,1.0
1011,13,100,0.897572279,3,7,7,5,6,5,101,101,101,loc1,loc5,5,0.0
1012,13,100,0.951603174,3,1,3,1,3,5,102,101,102,loc6,,5,10.0
1013,13,100,0.690253496,4,4,6,4,2,2,102,102,102,loc3,,5,10.0
1014,13,100,0.7203471659999999,7,5,5,3,7,5,101,101,101,loc4,,5,10.0
1015,13,100,0.9331803320000001,4,2,4,8,2,2,101,102,102,loc4,,5,10.0
1016,13,100,0.817196369,8,6,2,8,5,8,102,102,101,loc3,loc5,5,0.0
1017,13,100,0.7619097229999999,7,3,1,1,2,3,101,101,102,loc1,loc5,5,0.0
1018,13,100,1.220720291,7,6,5,7,1,7,102,101,101,loc5,loc2,5,3.0
1019,13,100,0.8812613490000001,2,6,8,8,6,8,102,102,101,loc1,,5,10.0
1020,13,100,0.9567351340000001,6,8,2,8,5,8,102,102,101,loc3,loc5,5,0.0
1021,13,100,0.75145793,4,6,2,4,3,2,102,102,102,loc2,loc5,5,0.0
1022,13,100,1.314899206,1,3,1,5,3,3,102,101,102,loc4,,5,10.0
1023,13,100,0.675454617,2,8,4,2,3,2,101,102,102,loc2,loc5,5,0.0
1024,13,100,0.626350164,1,3,3,1,5,3,102,101,102,loc5,,5,10.0
1025,13,100,0.742478848,8,8,8,6,2,6,102,102,101,loc5,,5,10.0
1026,13,100,0.770643711,1,7,1,3,1,3,101,101,102,loc2,,5,10.0
1027,13,100,0.7813124659999999,4,2,8,4,1,2,101,102,102,loc3,loc5,5,0.0
1028,13,100,1.031436443,6,8,8,6,2,7,102,102,101,loc5,loc6,5,1.0
1029,13,100,0.735418081,3,5,1,1,4,3,102,101,102,loc2,loc5,5,0.0
1030,13,100,0.723548651,5,5,7,3,7,5,101,101,101,loc4,,5,10.0
1031,13,100,0.6716380120000001,8,6,6,8,2,8,102,102,101,loc5,,5,10.0
1032,13,100,0.6784904,5,3,5,8,7,5,101,101,101,loc2,loc4,5,1.0
1033,13,100,0.788508177,8,2,4,2,2,4,101,102,102,loc1,,5,10.0
1034,13,100,1.310622931,5,7,5,5,7,3,101,101,101,loc6,,5,10.0
1035,13,100,0.8078954220000001,7,6,5,7,7,1,102,101,101,loc6,loc2,5,3.0
1036,13,100,0.9086382390000001,5,6,8,8,4,6,101,102,101,loc5,loc1,5,2.0
1037,13,100,0.66202426,3,3,5,1,1,3,102,101,102,loc3,,5,10.0
1038,13,100,0.780855417,7,5,5,3,8,5,101,101,101,loc4,loc5,5,0.0
1039,13,100,0.7748487,2,2,4,6,4,4,102,102,102,loc4,,5,10.0
1040,13,100,1.0816824440000001,5,1,3,1,3,3,102,101,102,loc1,,5,10.0
1041,13,100,1.183690071,1,7,5,5,8,7,102,101,101,loc1,loc5,5,0.0
1042,13,100,0.953693151,3,7,5,7,5,5,101,101,101,loc1,,5,10.0
1043,13,100,0.7170450690000001,7,5,7,1,5,7,102,101,101,loc4,,5,10.0
1044,13,100,0.70577836,8,2,8,6,6,8,102,102,101,loc2,,5,10.0
1045,13,100,0.6466434,2,6,6,7,8,8,102,102,101,loc1,loc4,5,1.0
1046,13,100,0.658749104,6,8,8,6,6,4,101,102,101,loc6,,5,10.0
1047,13,100,1.137564898,4,4,6,2,4,2,102,102,102,loc3,,5,10.0
1048,13,100,0.661581039,2,4,6,4,1,4,102,102,102,loc3,loc5,5,0.0
1049,13,100,0.860351801,8,8,6,4,5,6,101,102,101,loc4,loc5,5,0.0
1050,13,100,0.631737232,2,6,6,8,8,8,102,102,101,loc1,,5,10.0
1051,13,100,0.8479211329999999,3,3,5,3,1,1,102,101,102,loc3,,5,10.0
1052,13,100,0.663348913,2,4,4,2,8,2,101,102,102,loc5,,5,10.0
1053,13,100,0.7741897109999999,2,2,4,4,4,6,102,102,102,loc6,,5,10.0
1054,13,100,0.98896122,4,4,2,2,2,8,101,102,102,loc6,,5,10.0
1055,13,100,1.0543541909999998,7,5,8,5,3,5,101,101,101,loc5,loc3,5,2.0
1056,13,100,0.8416712279999999,5,5,5,7,8,3,101,101,101,loc6,loc5,5,0.0
1057,13,100,1.0977659229999999,1,1,3,4,5,3,102,101,102,loc5,loc4,5,1.0
1058,13,100,0.787094355,3,5,7,5,6,7,101,101,101,loc1,loc5,5,0.0
1059,13,100,0.882142305,1,3,1,7,3,1,101,101,102,loc4,,5,10.0
1060,13,100,0.943306208,5,7,5,7,5,3,101,101,101,loc6,,5,10.0
1061,13,100,0.8866295809999999,4,2,2,4,6,4,102,102,102,loc5,,5,10.0
1062,13,100,0.8207468990000001,6,6,5,4,8,8,101,102,101,loc4,loc3,5,2.0
1063,13,100,0.77747345,8,6,6,6,7,4,101,102,101,loc6,loc5,5,0.0
1064,13,100,1.219594002,8,6,8,6,5,4,101,102,101,loc6,loc5,5,0.0
1065,13,100,0.8962166309999999,3,2,3,1,5,3,102,101,102,loc5,loc2,5,3.0
1066,13,100,0.657585382,3,5,1,1,3,3,102,101,102,loc2,,5,10.0
1067,13,100,0.885059357,4,8,2,2,2,4,101,102,102,loc2,,5,10.0
1068,13,100,0.9351344109999999,7,3,1,1,2,3,101,101,102,loc1,loc5,5,0.0
1069,13,100,1.091276884,3,7,5,5,7,5,101,101,101,loc1,,5,10.0
1070,13,100,0.740611792,4,6,2,4,4,2,102,102,102,loc2,,5,10.0
1071,13,100,0.86469245,4,4,6,4,1,2,102,102,102,loc3,loc5,5,0.0
1072,13,100,0.7753858570000001,5,7,3,5,5,7,101,101,101,loc3,,5,10.0
1073,13,100,0.698197126,6,2,8,8,5,8,102,102,101,loc2,loc5,5,0.0
1074,13,100,0.703691244,7,5,7,7,6,1,102,101,101,loc6,loc5,5,0.0
1075,13,100,0.613165855,5,7,3,7,6,5,101,101,101,loc3,loc5,5,0.0
1076,13,100,0.893887758,1,3,5,3,1,3,102,101,102,loc3,,5,10.0
1077,13,100,0.735256195,2,2,4,8,3,2,101,102,102,loc4,loc5,5,0.0
1078,13,100,0.667490005,7,1,3,1,4,1,101,101,102,loc1,loc5,5,0.0
1079,13,100,0.722232103,2,2,2,8,3,4,101,102,102,loc4,loc5,5,0.0
1080,13,100,0.75109601,6,8,6,4,6,8,101,102,101,loc4,,5,10.0
1081,13,100,0.698507071,8,4,8,6,5,6,101,102,101,loc2,loc5,5,0.0
1082,13,100,0.823928118,3,3,3,1,5,1,102,101,102,loc5,,5,10.0
1083,13,100,0.696049213,7,5,5,1,7,7,102,101,101,loc4,,5,10.0
1084,13,100,0.874222517,4,6,2,2,4,4,102,102,102,loc2,,5,10.0
1085,13,100,0.784293413,7,5,7,7,1,5,102,101,101,loc5,,5,10.0
1086,13,100,0.778389215,4,8,2,1,2,4,101,102,102,loc2,loc4,5,1.0
1087,13,100,0.652384281,2,2,4,2,8,4,101,102,102,loc5,,5,10.0
1088,13,100,0.659894228,7,5,5,5,7,3,101,101,101,loc6,,5,10.0
1089,13,100,0.675367594,5,5,7,3,8,5,101,101,101,loc4,loc5,5,0.0
1090,13,100,0.733515978,4,2,3,8,2,2,101,102,102,loc4,loc3,5,2.0
1091,13,100,0.613636255,4,2,4,6,2,4,102,102,102,loc4,,5,10.0
1092,13,100,0.5911407470000001,3,3,1,1,1,7,101,101,102,loc6,,5,10.0
1093,13,100,0.936632395,2,3,4,2,8,2,101,102,102,loc5,loc2,5,3.0
1094,13,100,0.6405830379999999,3,1,1,3,7,1,101,101,102,loc5,,5,10.0
1095,13,100,0.6367282870000001,3,3,5,1,3,1,102,101,102,loc3,,5,10.0
1096,13,100,0.9041953090000001,7,7,5,5,5,3,101,101,101,loc6,,5,10.0
1097,13,100,0.661539078,7,1,3,1,4,1,101,101,102,loc1,loc5,5,0.0
1098,13,100,0.72033906,8,8,6,2,8,6,102,102,101,loc4,,5,10.0
1099,13,100,0.681094885,5,3,7,5,7,5,101,101,101,loc2,,5,10.0
1100,13,100,0.799216032,4,6,4,2,1,4,102,102,102,loc2,loc5,5,0.0
1101,13,100,0.6332824229999999,4,4,2,4,6,1,102,102,102,loc5,loc6,5,1.0
1102,13,100,0.829528332,2,4,4,6,3,2,102,102,102,loc4,loc5,5,0.0
1103,13,100,0.821530581,1,3,5,1,4,3,102,101,102,loc3,loc5,5,0.0
1104,13,100,0.8582823279999999,7,7,1,5,7,5,102,101,101,loc3,,5,10.0
1105,13,100,0.67701149,5,1,1,4,3,3,102,101,102,loc1,loc4,5,1.0
1106,13,100,0.731836081,8,6,2,6,7,8,102,102,101,loc3,loc5,5,0.0
1107,13,0,0.859885931,2,4,8,4,1,2,101,102,102,loc3,loc5,5,0.0
1108,13,100,0.882659912,7,1,7,7,5,5,102,101,101,loc2,,5,10.0
1109,13,100,0.840718746,3,5,1,1,4,3,102,101,102,loc2,loc5,5,0.0
1110,13,100,0.832851171,4,6,6,6,8,8,101,102,101,loc1,,5,10.0
1111,13,100,0.760848284,6,6,8,8,8,2,102,102,101,loc6,,5,10.0
1112,13,100,0.571572065,8,4,6,6,7,6,101,102,101,loc2,loc5,5,0.0
1113,13,100,1.022438288,7,3,3,1,2,1,101,101,102,loc1,loc5,5,0.0
1114,13,100,0.7791409490000001,1,3,1,1,4,7,101,101,102,loc6,loc5,5,0.0
1115,13,100,0.7732295990000001,2,6,6,8,7,8,102,102,101,loc1,loc5,5,0.0
1116,13,100,0.832059622,1,7,1,1,3,3,101,101,102,loc2,,5,10.0
1117,13,100,0.836120605,5,7,5,3,7,5,101,101,101,loc4,,5,10.0
1118,13,100,1.208262444,8,5,6,8,8,2,102,102,101,loc6,loc2,5,3.0
1119,13,100,0.6568503379999999,6,8,4,6,5,8,101,102,101,loc3,loc5,5,0.0
1120,13,100,0.8322892190000001,6,4,2,4,3,2,102,102,102,loc1,loc5,5,0.0
1121,13,100,0.656398296,1,3,1,3,2,7,101,101,102,loc6,loc5,5,0.0
1122,13,100,0.69523716,4,2,6,4,2,4,102,102,102,loc3,,5,10.0
1123,13,100,1.013406992,7,5,1,7,7,5,102,101,101,loc3,,5,10.0
1124,13,100,1.142111778,3,1,1,7,4,1,101,101,102,loc4,loc5,5,0.0
1125,13,100,0.5500152110000001,2,4,6,2,4,4,102,102,102,loc3,,5,10.0
1126,13,100,0.7054910659999999,1,5,7,7,5,7,102,101,101,loc1,,5,10.0
1127,13,100,1.442305565,1,7,5,7,5,7,102,101,101,loc1,,5,10.0
1128,13,100,0.794233084,1,3,3,1,3,5,102,101,102,loc6,,5,10.0
1129,13,100,0.875650167,5,5,7,5,8,3,101,101,101,loc6,loc5,5,0.0
1130,13,100,0.906415462,6,5,5,7,3,7,101,101,101,loc5,loc1,5,2.0
1131,13,100,0.583090305,5,5,3,7,6,7,101,101,101,loc3,loc5,5,0.0
1132,13,100,0.817287922,4,6,6,6,8,8,101,102,101,loc1,,5,10.0
1133,13,100,0.7540843490000001,8,2,8,6,8,6,102,102,101,loc2,,5,10.0
1134,13,100,0.853516102,2,2,4,3,6,4,102,102,102,loc5,loc4,5,1.0
1135,13,100,1.232897282,8,6,6,8,5,4,101,102,101,loc6,loc5,5,0.0
1136,13,100,1.008821964,8,2,4,2,2,4,101,102,102,loc1,,5,10.0
1137,13,100,0.910225391,8,8,5,8,2,6,102,102,101,loc5,loc3,5,2.0
1138,13,100,0.934945345,4,2,2,4,8,2,101,102,102,loc5,,5,10.0
1139,13,100,0.7788982390000001,7,5,7,1,8,5,102,101,101,loc4,loc5,5,0.0
1140,13,100,0.7949540620000001,1,5,3,3,3,1,102,101,102,loc2,,5,10.0
1141,13,100,0.836403131,1,1,1,7,4,3,101,101,102,loc4,loc5,5,0.0
1142,13,100,0.880438328,8,8,6,4,5,6,101,102,101,loc4,loc5,5,0.0
1143,13,100,0.78249836,8,4,2,2,4,2,101,102,102,loc1,,5,10.0
1144,13,100,0.608570099,2,4,2,3,6,4,102,102,102,loc5,loc4,5,1.0
1145,13,100,0.654100895,8,6,6,8,4,6,101,102,101,loc5,,5,10.0
1146,13,100,0.564828396,5,5,7,3,7,5,101,101,101,loc4,,5,10.0
1147,13,100,0.523658276,7,1,5,7,8,5,102,101,101,loc2,loc5,5,0.0
1148,13,100,0.768449545,1,3,7,1,1,3,101,101,102,loc3,,5,10.0
1149,13,100,0.611194372,4,4,2,2,2,8,101,102,102,loc6,,5,10.0
1150,13,100,0.684002876,2,4,1,8,4,2,101,102,102,loc4,loc3,5,2.0
1151,13,100,0.586133242,3,5,1,3,1,3,102,101,102,loc2,,5,10.0
1152,13,100,0.836330652,2,6,8,8,6,8,102,102,101,loc1,,5,10.0
1153,13,100,1.100358486,4,4,2,2,3,6,102,102,102,loc6,loc5,5,0.0
1154,13,100,0.6817400459999999,5,7,3,7,5,5,101,101,101,loc3,,5,10.0
1155,13,100,0.827888966,7,7,1,5,5,7,102,101,101,loc3,,5,10.0
1156,13,100,0.7206294540000001,2,1,1,3,7,3,101,101,102,loc5,loc1,5,2.0
1157,13,100,0.736788034,2,4,2,8,2,4,101,102,102,loc4,,5,10.0
1158,13,100,0.844863415,6,8,4,8,6,6,101,102,101,loc3,,5,10.0
1159,13,100,0.596963644,6,2,4,4,3,2,102,102,102,loc1,loc5,5,0.0
1160,13,100,1.066457987,4,6,8,6,7,6,101,102,101,loc1,loc5,5,0.0
1161,13,100,0.817155361,3,1,1,3,4,5,102,101,102,loc6,loc5,5,0.0
1162,13,100,0.6739912029999999,6,2,4,2,4,4,102,102,102,loc1,,5,10.0
1163,13,100,0.764059067,7,7,7,1,6,5,102,101,101,loc4,loc5,5,0.0
1164,13,100,0.7514662740000001,4,6,4,4,2,2,102,102,102,loc2,,5,10.0
1165,13,100,0.754888773,2,4,2,2,4,8,101,102,102,loc6,,5,10.0
1166,13,100,0.6936407090000001,8,4,4,2,1,2,101,102,102,loc1,loc5,5,0.0
1167,13,100,0.851703405,5,7,7,7,1,5,102,101,101,loc5,,5,10.0
1168,13,100,0.851079226,5,7,7,5,3,5,101,101,101,loc5,,5,10.0
1169,13,100,0.610503197,5,7,1,5,8,7,102,101,101,loc3,loc5,5,0.0
1170,13,100,0.539285183,1,7,7,5,5,7,102,101,101,loc1,,5,10.0
1171,13,100,0.575412035,1,1,3,7,4,1,101,101,102,loc4,loc5,5,0.0
1172,13,100,0.709590435,5,3,5,7,8,5,101,101,101,loc2,loc5,5,0.0
1173,13,100,0.763005733,1,1,3,3,5,3,102,101,102,loc5,,5,10.0
1174,13,100,0.813811541,2,8,2,2,3,4,101,102,102,loc2,loc5,5,0.0
1175,13,100,1.022609472,5,7,3,5,6,7,101,101,101,loc3,loc5,5,0.0
1176,13,100,0.887303829,6,5,8,8,6,4,101,102,101,loc6,loc2,5,3.0
1177,13,100,1.1174321170000001,7,3,3,1,1,1,101,101,102,loc1,,5,10.0
1178,13,100,0.822098732,3,3,1,5,1,3,102,101,102,loc4,,5,10.0
1179,13,100,0.6501870160000001,2,4,8,2,4,2,101,102,102,loc3,,5,10.0
1180,13,100,0.585566044,2,6,6,7,8,8,102,102,101,loc1,loc4,5,1.0
1181,13,100,0.643696308,8,2,8,6,7,6,102,102,101,loc2,loc5,5,0.0
1182,13,100,0.727861166,2,4,4,2,3,6,102,102,102,loc6,loc5,5,0.0
1183,13,100,0.8839240070000001,7,7,6,5,1,7,102,101,101,loc5,loc3,5,2.0
1184,13,100,0.930001497,6,7,8,6,2,8,102,102,101,loc5,loc2,5,3.0
1185,13,100,0.570141077,5,1,5,7,7,7,102,101,101,loc2,,5,10.0
1186,13,100,1.1009211540000001,1,3,1,1,7,4,101,101,102,loc5,loc6,5,1.0
1187,13,100,0.7503051759999999,5,7,7,3,5,5,101,101,101,loc4,,5,10.0
1188,13,100,0.585685015,8,6,2,6,7,8,102,102,101,loc3,loc5,5,0.0
1189,13,100,0.987876415,1,5,3,1,3,3,102,101,102,loc2,,5,10.0
1190,13,100,0.701842785,6,8,2,6,7,8,102,102,101,loc3,loc5,5,0.0
1191,13,100,0.627253532,7,7,5,5,5,3,101,101,101,loc6,,5,10.0
1192,13,100,0.679396152,4,8,6,6,7,6,101,102,101,loc1,loc5,5,0.0
1193,13,100,0.909573078,2,2,4,6,4,4,102,102,102,loc4,,5,10.0
1194,13,100,0.739026308,3,1,3,1,7,1,101,101,102,loc5,,5,10.0
1195,13,100,0.603095293,2,2,6,4,3,4,102,102,102,loc3,loc5,5,0.0
1196,13,100,0.719892979,6,6,6,8,8,4,101,102,101,loc6,,5,10.0
1197,13,100,0.7686953540000001,8,6,8,6,6,4,101,102,101,loc6,,5,10.0
1198,13,100,0.8155190940000001,3,5,1,4,3,1,102,101,102,loc2,loc4,5,1.0
1199,13,100,0.8922080990000001,7,7,7,5,6,1,102,101,101,loc6,loc5,5,0.0
1200,13,100,0.777989388,4,2,2,2,4,8,101,102,102,loc6,,5,10.0
1201,13,100,0.7159938809999999,3,1,1,7,4,1,101,101,102,loc4,loc5,5,0.0
1202,13,100,0.688741446,7,5,7,3,6,5,101,101,101,loc4,loc5,5,0.0
1203,13,100,0.606925964,1,3,5,1,4,3,102,101,102,loc3,loc5,5,0.0
1204,13,100,0.631742954,2,4,2,4,1,8,101,102,102,loc6,loc5,5,0.0
1205,13,100,0.919864655,5,7,7,5,7,1,102,101,101,loc6,,5,10.0
1206,13,100,0.7086000440000001,7,7,7,5,1,5,102,101,101,loc5,,5,10.0
1207,13,100,0.722015142,4,4,6,4,1,2,102,102,102,loc3,loc5,5,0.0
1208,13,100,0.838835955,2,2,8,4,4,2,101,102,102,loc3,,5,10.0
1209,13,100,0.654202223,2,6,6,8,8,8,102,102,101,loc1,,5,10.0
1210,13,100,0.6937060359999999,5,5,5,7,8,3,101,101,101,loc6,loc5,5,0.0
1211,13,100,0.6791543959999999,1,3,5,1,3,3,102,101,102,loc3,,5,10.0
1212,13,100,0.717927456,6,6,8,8,8,2,102,102,101,loc6,,5,10.0
1213,13,100,0.9587283129999999,3,1,7,1,4,1,101,101,102,loc3,loc5,5,0.0
1214,13,100,0.605355263,4,2,4,1,6,4,102,102,102,loc5,loc4,5,1.0
1215,13,100,0.566865206,4,8,2,2,2,4,101,102,102,loc2,,5,10.0
1216,13,100,0.805693388,1,5,3,3,2,3,102,101,102,loc2,loc5,5,0.0
1217,13,100,0.543081045,4,4,6,4,1,2,102,102,102,loc3,loc5,5,0.0
1218,13,100,0.72659111,8,6,8,8,2,6,102,102,101,loc5,,5,10.0
1219,13,100,0.494694233,2,6,8,8,8,6,102,102,101,loc1,,5,10.0
1220,13,100,0.6529154779999999,5,5,7,3,6,7,101,101,101,loc4,loc5,5,0.0
1221,13,100,0.516469955,6,2,8,8,6,8,102,102,101,loc2,,5,10.0
1222,13,100,0.697347403,1,3,3,1,1,7,101,101,102,loc6,,5,10.0
1223,13,100,0.646829367,8,2,8,6,6,8,102,102,101,loc2,,5,10.0
1224,13,100,0.554332256,7,5,8,5,3,5,101,101,101,loc5,loc3,5,2.0
1225,13,100,0.805772543,1,5,3,4,1,3,102,101,102,loc2,loc4,5,1.0
1226,13,100,0.655161381,3,1,3,5,1,3,102,101,102,loc4,,5,10.0
1227,13,100,0.8779911990000001,8,8,6,6,7,2,102,102,101,loc6,loc5,5,0.0
1228,13,100,0.6887230870000001,4,4,6,2,1,4,102,102,102,loc3,loc5,5,0.0
1229,13,100,0.6221818920000001,7,3,1,1,2,3,101,101,102,loc1,loc5,5,0.0
1230,13,100,0.743034124,4,6,6,5,8,8,101,102,101,loc1,loc4,5,1.0
1231,13,100,0.5630671979999999,6,8,8,8,5,2,102,102,101,loc6,loc5,5,0.0
1232,13,100,0.637927055,7,5,7,3,5,5,101,101,101,loc4,,5,10.0
1233,13,100,0.7100782390000001,8,6,8,8,2,5,102,102,101,loc5,loc6,5,1.0
1234,13,100,0.738853455,5,8,8,6,2,8,102,102,101,loc5,loc1,5,2.0
1235,13,100,0.974945307,1,5,3,3,2,3,102,101,102,loc2,loc5,5,0.0
1236,13,100,0.58898139,7,7,5,5,5,3,101,101,101,loc6,,5,10.0
1237,13,100,0.70705986,1,7,7,5,8,5,102,101,101,loc1,loc5,5,0.0
1238,13,100,0.824483871,3,5,1,1,3,3,102,101,102,loc2,,5,10.0
1239,13,100,0.820578337,5,5,7,1,8,7,102,101,101,loc4,loc5,5,0.0
1240,13,100,0.709283113,4,4,2,8,2,2,101,102,102,loc4,,5,10.0
1241,13,100,0.70206356,8,8,8,6,2,6,102,102,101,loc5,,5,10.0
1242,13,100,0.70747447,4,2,2,8,4,2,101,102,102,loc4,,5,10.0
1243,13,100,0.816973209,7,3,5,5,8,5,101,101,101,loc2,loc5,5,0.0
1244,13,100,0.7056849000000001,5,3,3,1,1,3,102,101,102,loc1,,5,10.0
1245,13,100,0.667143822,4,6,2,4,3,2,102,102,102,loc2,loc5,5,0.0
1246,13,100,0.613940954,1,3,7,1,3,1,101,101,102,loc3,,5,10.0
1247,13,100,0.7147371770000001,3,3,1,1,7,1,101,101,102,loc5,,5,10.0
1248,13,100,0.879560947,8,5,6,6,8,4,101,102,101,loc6,loc2,5,3.0
1249,13,100,0.621648073,3,1,1,1,7,3,101,101,102,loc5,,5,10.0
1250,13,100,0.942500353,7,7,5,3,5,5,101,101,101,loc4,,5,10.0
1251,13,100,0.60988307,2,8,6,8,7,6,102,102,101,loc1,loc5,5,0.0
1252,13,100,0.811451912,7,5,3,5,7,5,101,101,101,loc3,,5,10.0
1253,13,100,0.956202984,3,1,2,7,1,3,101,101,102,loc4,loc3,5,2.0
1254,13,100,0.879547119,7,1,3,1,3,1,101,101,102,loc1,,5,10.0
1255,13,100,0.8735423090000001,8,4,4,2,1,2,101,102,102,loc1,loc5,5,0.0
1256,13,100,0.72427249,4,2,8,4,2,2,101,102,102,loc3,,5,10.0
1257,13,100,0.8563599590000001,4,6,8,8,6,6,101,102,101,loc1,,5,10.0
1258,13,100,0.735784054,6,5,8,8,4,6,101,102,101,loc5,loc2,5,3.0
1259,13,100,0.5558791160000001,8,2,8,6,8,6,102,102,101,loc2,,5,10.0
1260,13,100,0.639102221,8,6,8,8,5,2,102,102,101,loc6,loc5,5,0.0
1261,13,100,0.594562531,5,7,7,1,5,7,102,101,101,loc4,,5,10.0
1262,13,100,0.552725315,5,5,5,7,7,3,101,101,101,loc6,,5,10.0
1263,13,100,0.603561401,7,5,1,5,7,7,102,101,101,loc3,,5,10.0
1264,13,100,0.5651183129999999,5,5,3,7,7,5,101,101,101,loc3,,5,10.0
1265,13,100,0.6559438710000001,6,4,2,4,2,4,102,102,102,loc1,,5,10.0
1266,13,100,0.61147213,6,8,2,8,5,8,102,102,101,loc3,loc5,5,0.0
1267,13,100,0.5363001820000001,8,2,8,6,7,6,102,102,101,loc2,loc5,5,0.0
1268,13,100,0.772441864,5,3,3,3,1,1,102,101,102,loc1,,5,10.0
1269,13,100,0.659214258,1,2,4,2,8,4,101,102,102,loc5,loc1,5,2.0
1270,13,100,0.5300421710000001,5,3,1,3,3,1,102,101,102,loc1,,5,10.0
1271,13,100,0.878893375,5,1,5,8,7,7,102,101,101,loc2,loc4,5,1.0
1272,13,100,0.740940094,1,1,1,7,3,3,101,101,102,loc4,,5,10.0
1273,13,100,0.99307704,2,4,2,3,8,2,101,102,102,loc5,loc4,5,1.0
1274,13,100,0.6144394870000001,2,2,4,4,4,6,102,102,102,loc6,,5,10.0
1275,13,100,0.683192015,1,5,3,3,2,3,102,101,102,loc2,loc5,5,0.0
1276,13,100,0.785342455,8,2,6,8,8,6,102,102,101,loc2,,5,10.0
1277,13,100,0.7074959279999999,4,2,2,4,2,8,101,102,102,loc6,,5,10.0
1278,13,100,0.7848439220000001,6,8,6,4,6,8,101,102,101,loc4,,5,10.0
1279,13,100,1.227050781,5,7,7,1,7,5,102,101,101,loc4,,5,10.0
1280,13,100,0.866898775,3,5,3,3,1,1,102,101,102,loc2,,5,10.0
1281,13,100,0.6936354640000001,3,7,7,5,6,5,101,101,101,loc1,loc5,5,0.0
1282,13,100,0.591757298,7,7,7,5,1,5,102,101,101,loc5,,5,10.0
1283,13,100,1.069250107,3,1,1,3,7,2,101,101,102,loc5,loc6,5,1.0
1284,13,100,0.731933355,4,2,4,2,1,8,101,102,102,loc6,loc5,5,0.0
1285,13,100,0.59209013,6,8,2,6,7,8,102,102,101,loc3,loc5,5,0.0
1286,13,100,0.64623332,7,7,7,1,6,5,102,101,101,loc4,loc5,5,0.0
1287,13,100,0.657704353,4,4,6,4,2,2,102,102,102,loc3,,5,10.0
1288,13,100,0.640446186,1,1,1,7,4,3,101,101,102,loc4,loc5,5,0.0
1289,13,100,0.568635941,5,1,5,7,8,7,102,101,101,loc2,loc5,5,0.0
1290,13,100,0.583457947,6,8,2,8,8,6,102,102,101,loc3,,5,10.0
1291,13,100,0.6975851059999999,3,1,3,5,4,1,102,101,102,loc4,loc5,5,0.0
1292,13,100,0.77500844,8,6,4,6,8,6,101,102,101,loc3,,5,10.0
1293,13,100,0.733778954,5,8,5,5,3,7,101,101,101,loc5,loc2,5,3.0
1294,13,100,0.49784946399999996,7,7,1,7,6,5,102,101,101,loc3,loc5,5,0.0
1295,13,100,0.6553337570000001,7,5,5,7,7,1,102,101,101,loc6,,5,10.0
1296,13,100,0.59082818,7,1,1,4,1,3,101,101,102,loc1,loc4,5,1.0
1297,13,100,0.672390223,7,3,7,5,5,5,101,101,101,loc2,,5,10.0
1298,13,100,0.69511342,7,1,3,1,4,1,101,101,102,loc1,loc5,5,0.0
1299,13,100,0.548603296,4,8,2,4,1,2,101,102,102,loc2,loc5,5,0.0
1300,13,100,0.716103077,5,7,8,5,3,5,101,101,101,loc5,loc3,5,2.0
1301,13,100,0.680855274,2,4,2,6,4,4,102,102,102,loc4,,5,10.0
1302,13,100,0.770973444,6,2,4,4,3,2,102,102,102,loc1,loc5,5,0.0
1303,13,100,0.573775053,1,3,1,3,1,7,101,101,102,loc6,,5,10.0
1304,13,100,0.8886501790000001,8,2,2,2,4,4,101,102,102,loc1,,5,10.0
1305,13,100,0.574725151,4,3,2,2,2,8,101,102,102,loc6,loc2,5,3.0
1306,13,100,1.22484827,8,6,8,2,7,6,102,102,101,loc4,loc5,5,0.0
1307,13,100,1.049521208,2,2,4,2,3,8,101,102,102,loc6,loc5,5,0.0
1308,13,100,0.628817081,2,4,2,4,8,2,101,102,102,loc5,,5,10.0
1309,13,100,0.852979183,7,5,5,5,3,7,101,101,101,loc5,,5,10.0
1310,13,100,0.860341072,7,7,5,5,3,5,101,101,101,loc5,,5,10.0
1311,13,100,0.691034079,4,8,6,6,6,8,101,102,101,loc1,,5,10.0
1312,13,100,0.849190235,4,2,2,2,3,8,101,102,102,loc6,loc5,5,0.0
1313,13,100,0.644585371,2,8,8,6,5,8,102,102,101,loc1,loc5,5,0.0
1314,13,100,0.708042145,4,4,1,6,2,4,102,102,102,loc4,loc3,5,2.0
1315,13,100,0.697453737,3,3,5,1,4,1,102,101,102,loc3,loc5,5,0.0
1316,13,100,0.742876291,6,2,8,8,8,6,102,102,101,loc2,,5,10.0
1317,13,100,0.7390191559999999,4,8,2,2,4,2,101,102,102,loc2,,5,10.0
1318,13,100,0.942432165,8,6,8,6,4,6,101,102,101,loc5,,5,10.0
1319,13,0,0.806462765,1,3,7,1,2,3,101,101,102,loc3,loc5,5,0.0
1320,13,100,0.665598869,1,7,1,1,3,3,101,101,102,loc2,,5,10.0
1321,13,100,0.920403957,5,1,5,7,8,7,102,101,101,loc2,loc5,5,0.0
1322,13,100,0.616452694,2,2,4,4,3,6,102,102,102,loc6,loc5,5,0.0
1323,13,100,0.5179491039999999,2,6,4,1,4,4,102,102,102,loc2,loc4,5,1.0
1324,13,100,0.630134106,8,2,6,8,5,8,102,102,101,loc2,loc5,5,0.0
1325,13,100,0.618943214,4,1,4,2,4,6,102,102,102,loc6,loc2,5,3.0
1326,13,100,0.651793242,2,4,2,4,2,8,101,102,102,loc6,,5,10.0
1327,13,100,0.687238455,3,1,3,1,3,5,102,101,102,loc6,,5,10.0
1328,13,100,0.5047056670000001,2,8,2,4,2,4,101,102,102,loc2,,5,10.0
1329,13,100,0.722207308,8,2,8,6,5,8,102,102,101,loc2,loc5,5,0.0
1330,13,100,0.8910079,7,5,5,7,8,1,102,101,101,loc6,loc5,5,0.0
1331,13,100,0.568421841,3,5,5,7,7,5,101,101,101,loc1,,5,10.0
1332,13,100,0.551301479,7,3,5,5,5,7,101,101,101,loc2,,5,10.0
1333,13,100,0.538836241,6,6,5,8,4,8,101,102,101,loc5,loc3,5,2.0
1334,13,100,0.542984486,8,8,2,8,6,6,102,102,101,loc3,,5,10.0
1335,13,100,1.1424901490000001,3,3,1,7,2,1,101,101,102,loc4,loc5,5,0.0
1336,13,100,0.674512386,5,3,7,7,5,5,101,101,101,loc2,,5,10.0
1337,13,100,0.688651085,3,1,1,3,7,1,101,101,102,loc5,,5,10.0
1338,13,100,0.7108101840000001,7,5,7,5,1,7,102,101,101,loc5,,5,10.0
1339,13,100,0.988220215,1,3,1,5,3,3,102,101,102,loc4,,5,10.0
1340,13,100,0.605585814,8,6,8,2,6,8,102,102,101,loc4,,5,10.0
1341,13,100,0.8110952379999999,3,3,1,7,2,1,101,101,102,loc4,loc5,5,0.0
1342,13,100,0.7758491040000001,3,5,5,7,6,7,101,101,101,loc1,loc5,5,0.0
1343,13,100,0.666648149,2,2,4,2,4,8,101,102,102,loc6,,5,10.0
1344,13,100,0.861440182,6,8,6,8,8,2,102,102,101,loc6,,5,10.0
1345,13,100,0.6042509079999999,3,1,3,7,2,1,101,101,102,loc4,loc5,5,0.0
1346,13,100,0.58569932,8,6,4,8,6,6,101,102,101,loc3,,5,10.0
1347,13,100,0.8358113770000001,1,1,1,3,4,7,101,101,102,loc6,loc5,5,0.0
1348,13,100,0.5999579429999999,5,1,3,3,3,1,102,101,102,loc1,,5,10.0
1349,13,100,0.625344992,5,7,1,7,7,5,102,101,101,loc3,,5,10.0
1350,13,100,0.533563137,8,2,4,2,3,2,101,102,102,loc1,loc5,5,0.0
1351,13,100,0.633747816,1,3,3,5,1,3,102,101,102,loc4,,5,10.0
1352,13,100,0.945873022,5,8,8,8,2,6,102,102,101,loc5,loc1,5,2.0
1353,13,100,0.665865421,2,2,4,4,6,3,102,102,102,loc5,loc6,5,1.0
1354,13,100,0.92061305,5,7,5,5,7,3,101,101,101,loc6,,5,10.0
1355,13,100,0.68465209,8,5,8,6,2,8,102,102,101,loc5,loc2,5,3.0
1356,13,100,0.602712631,8,2,4,3,2,2,101,102,102,loc1,loc4,5,1.0
1357,13,100,1.084252357,1,5,5,7,8,7,102,101,101,loc1,loc5,5,0.0
1358,13,100,0.606312037,1,1,7,1,4,3,101,101,102,loc3,loc5,5,0.0
1359,13,100,0.9516944890000001,3,5,7,7,6,5,101,101,101,loc1,loc5,5,0.0
1360,13,100,0.595040798,6,4,6,8,6,8,101,102,101,loc2,,5,10.0
1361,13,100,0.880516291,3,3,1,7,1,1,101,101,102,loc4,,5,10.0
1362,13,100,0.626646757,3,7,7,5,5,5,101,101,101,loc1,,5,10.0
1363,13,100,0.6633973120000001,2,2,2,8,4,4,101,102,102,loc4,,5,10.0
1364,13,100,0.622174501,1,3,5,1,4,3,102,101,102,loc3,loc5,5,0.0
1365,13,100,0.778974295,2,6,8,8,8,6,102,102,101,loc1,,5,10.0
1366,13,100,0.701087713,6,8,6,5,4,8,101,102,101,loc5,loc4,5,1.0
1367,13,100,0.602578878,7,5,7,5,3,5,101,101,101,loc5,,5,10.0
1368,13,100,0.796030998,2,4,2,4,6,4,102,102,102,loc5,,5,10.0
1369,13,100,0.697453737,4,2,2,2,3,8,101,102,102,loc6,loc5,5,0.0
1370,13,100,0.498944044,3,3,3,5,2,1,102,101,102,loc4,loc5,5,0.0
1371,13,100,0.512393236,2,4,6,4,1,4,102,102,102,loc3,loc5,5,0.0
1372,13,100,0.517945051,6,2,4,2,4,4,102,102,102,loc1,,5,10.0
1373,13,100,0.826754332,8,8,6,8,2,6,102,102,101,loc5,,5,10.0
1374,13,100,0.598833084,7,1,5,7,8,5,102,101,101,loc2,loc5,5,0.0
1375,13,100,0.8203051090000001,8,8,5,2,8,6,102,102,101,loc4,loc3,5,2.0
1376,13,100,0.513128281,5,5,3,7,5,7,101,101,101,loc3,,5,10.0
1377,13,100,0.773976326,2,4,8,4,2,2,101,102,102,loc3,,5,10.0
1378,13,100,0.47268295299999996,3,3,5,1,4,1,102,101,102,loc3,loc5,5,0.0
1379,13,100,0.879564047,6,6,4,6,7,8,101,102,101,loc3,loc5,5,0.0
1380,13,100,0.6293301579999999,6,6,8,6,8,4,101,102,101,loc6,,5,10.0
1381,13,100,0.569384098,3,3,5,1,2,3,102,101,102,loc3,loc5,5,0.0
1382,13,100,0.76419878,7,5,6,3,5,7,101,101,101,loc4,loc3,5,2.0
1383,13,100,0.494927406,6,2,2,4,3,4,102,102,102,loc1,loc5,5,0.0
1384,13,100,0.648503304,7,7,5,5,8,1,102,101,101,loc6,loc5,5,0.0
1385,13,100,0.7279574870000001,5,6,7,5,3,7,101,101,101,loc5,loc2,5,3.0
1386,13,100,0.636670113,2,4,6,4,2,4,102,102,102,loc3,,5,10.0
1387,13,100,0.636870384,4,8,2,4,2,2,101,102,102,loc2,,5,10.0
1388,13,100,0.5842583179999999,3,2,1,3,3,5,102,101,102,loc6,loc2,5,3.0
1389,13,100,0.598459244,6,2,2,4,4,4,102,102,102,loc1,,5,10.0
1390,13,100,0.611967564,7,1,1,3,2,3,101,101,102,loc1,loc5,5,0.0
1391,13,100,0.837411404,6,8,6,4,6,8,101,102,101,loc4,,5,10.0
1392,13,100,0.70548892,1,1,3,1,3,7,101,101,102,loc6,,5,10.0
1393,13,100,0.542284012,1,1,3,1,7,3,101,101,102,loc5,,5,10.0
1394,13,100,0.778505564,6,6,4,6,8,8,101,102,101,loc3,,5,10.0
1395,13,100,0.536592245,6,4,4,2,4,2,102,102,102,loc1,,5,10.0
1396,13,100,0.548805475,1,1,3,1,3,7,101,101,102,loc6,,5,10.0
1397,13,100,0.476303101,4,2,6,4,1,4,102,102,102,loc3,loc5,5,0.0
1398,13,100,0.586458921,7,1,5,5,7,7,102,101,101,loc2,,5,10.0
1399,13,100,0.6406571870000001,4,4,1,2,6,4,102,102,102,loc5,loc3,5,2.0
1400,13,100,0.6047616,4,4,2,2,6,4,102,102,102,loc5,,5,10.0
1401,13,100,0.5422000889999999,7,3,1,3,2,1,101,101,102,loc1,loc5,5,0.0
1402,13,100,0.49780154200000004,3,5,3,1,2,3,102,101,102,loc2,loc5,5,0.0
1403,13,100,0.5032825470000001,3,1,3,1,4,5,102,101,102,loc6,loc5,5,0.0
1404,13,100,0.704819202,8,6,6,4,8,6,101,102,101,loc4,,5,10.0
1405,13,100,0.610242605,3,1,3,7,2,1,101,101,102,loc4,loc5,5,0.0
1406,13,100,0.635046244,8,6,8,2,7,6,102,102,101,loc4,loc5,5,0.0
1407,13,100,0.547138453,7,7,5,5,1,7,102,101,101,loc5,,5,10.0
1408,13,100,0.46261549,7,3,5,5,6,7,101,101,101,loc2,loc5,5,0.0
1409,13,100,0.598186255,4,8,8,6,5,6,101,102,101,loc1,loc5,5,0.0
1410,13,100,0.615699291,3,3,1,5,3,1,102,101,102,loc4,,5,10.0
1411,13,100,0.46451020200000004,3,1,3,5,1,3,102,101,102,loc4,,5,10.0
1412,13,100,0.631357431,1,3,5,3,4,1,102,101,102,loc3,loc5,5,0.0
1413,13,100,0.7034764290000001,8,8,6,8,5,2,102,102,101,loc6,loc5,5,0.0
1414,13,100,0.656864166,6,8,8,6,4,5,101,102,101,loc5,loc6,5,1.0
1415,13,100,0.548330545,4,6,8,8,6,6,101,102,101,loc1,,5,10.0
1416,13,100,0.495811701,7,5,7,5,5,3,101,101,101,loc6,,5,10.0
1417,13,0,0.65335536,2,4,2,2,3,8,101,102,102,loc6,loc5,5,0.0
1418,13,100,1.164833307,7,6,8,6,4,6,101,102,101,loc5,loc1,5,2.0
1419,13,100,0.879398108,6,6,4,8,7,6,101,102,101,loc3,loc5,5,0.0
1420,13,100,1.045427322,6,2,2,4,4,4,102,102,102,loc1,,5,10.0
1421,13,100,0.653545141,1,7,5,5,7,7,102,101,101,loc1,,5,10.0
1422,13,100,0.709130287,4,4,2,1,6,4,102,102,102,loc5,loc4,5,1.0
1423,13,100,0.605807066,8,8,2,8,5,6,102,102,101,loc3,loc5,5,0.0
1424,13,100,0.599271297,6,4,6,8,7,6,101,102,101,loc2,loc5,5,0.0
1425,13,100,0.792724133,3,1,1,3,7,1,101,101,102,loc5,,5,10.0
1426,13,100,0.5820930000000001,1,3,5,3,1,3,102,101,102,loc3,,5,10.0
1427,13,100,0.6402802470000001,7,3,5,5,5,7,101,101,101,loc2,,5,10.0
1428,13,100,1.032456636,4,4,2,8,1,2,101,102,102,loc4,loc5,5,0.0
1429,13,100,0.528487921,4,6,4,2,4,2,102,102,102,loc2,,5,10.0
1430,13,100,0.692704916,8,6,8,6,2,8,102,102,101,loc5,,5,10.0
1431,13,100,0.670810461,4,2,2,8,1,4,101,102,102,loc4,loc5,5,0.0
1432,13,100,0.629580259,5,3,5,5,7,7,101,101,101,loc2,,5,10.0
1433,13,100,0.645689964,7,1,5,5,8,7,102,101,101,loc2,loc5,5,0.0
1434,13,100,0.521217108,7,5,7,5,5,3,101,101,101,loc6,,5,10.0
1435,13,100,0.57800889,1,7,7,6,7,5,102,101,101,loc1,loc4,5,1.0
1436,13,100,0.5401928420000001,8,8,2,8,6,6,102,102,101,loc3,,5,10.0
1437,13,100,0.500355244,5,7,7,1,5,7,102,101,101,loc4,,5,10.0
1438,13,100,0.813881159,1,1,7,3,1,3,101,101,102,loc3,,5,10.0
1439,13,100,0.630597591,8,4,8,5,6,6,101,102,101,loc2,loc4,5,1.0
1440,14,100,0.922552347,8,7,6,4,6,6,101,102,101,loc4,loc2,4,2.0
1441,14,100,1.1826317309999999,4,2,2,1,4,8,101,102,102,loc6,loc4,4,0.0
1442,14,100,0.7611994740000001,5,7,3,8,5,5,101,101,101,loc3,loc4,4,0.0
1443,14,100,0.683979034,1,7,5,8,5,7,102,101,101,loc1,loc4,4,0.0
1444,14,100,0.666045427,6,4,2,4,4,2,102,102,102,loc1,,4,10.0
1445,14,100,0.916852236,6,8,2,5,8,8,102,102,101,loc3,loc4,4,0.0
1446,14,100,0.829545975,1,1,7,3,4,1,101,101,102,loc3,loc5,4,1.0
1447,14,100,0.665654421,5,1,2,3,3,3,102,101,102,loc1,loc3,4,1.0
1448,14,100,0.6644010539999999,2,2,2,4,8,4,101,102,102,loc5,,4,10.0
1449,14,100,0.715865374,7,5,5,7,5,3,101,101,101,loc6,,4,10.0
1450,14,100,0.6646907329999999,3,1,7,1,1,3,101,101,102,loc3,,4,10.0
1451,14,100,0.7914319040000001,1,6,4,4,4,2,102,102,102,loc2,loc1,4,3.0
1452,14,100,0.7848367690000001,5,7,5,7,3,5,101,101,101,loc5,,4,10.0
1453,14,100,0.778955698,6,2,4,4,2,4,102,102,102,loc1,,4,10.0
1454,14,100,0.8257253170000001,3,3,3,5,2,1,102,101,102,loc4,loc5,4,1.0
1455,14,100,0.753833055,4,2,2,2,8,4,101,102,102,loc5,,4,10.0
1456,14,100,0.793273687,7,7,5,7,1,6,102,101,101,loc5,loc6,4,2.0
1457,14,100,0.598700523,8,8,6,2,8,6,102,102,101,loc4,,4,10.0
1458,14,100,0.568213224,1,7,5,5,7,7,102,101,101,loc1,,4,10.0
1459,14,100,0.895035982,3,1,7,4,1,1,101,101,102,loc3,loc4,4,0.0
1460,14,100,0.6851191520000001,1,7,1,4,1,3,101,101,102,loc2,loc4,4,0.0
1461,14,100,0.7471630570000001,4,4,2,4,2,6,102,102,102,loc6,,4,10.0
1462,14,100,0.8225944040000001,2,4,8,4,2,2,101,102,102,loc3,,4,10.0
1463,14,0,0.65534234,3,1,1,4,7,1,101,101,102,loc5,loc4,4,0.0
1464,14,100,1.738159657,4,6,8,5,8,6,101,102,101,loc1,loc4,4,0.0
1465,14,100,0.7819139959999999,8,8,6,2,6,8,102,102,101,loc4,,4,10.0
1466,14,100,0.615974426,6,6,8,8,2,8,102,102,101,loc5,,4,10.0
1467,14,100,0.896770477,3,3,1,4,5,1,102,101,102,loc5,loc4,4,0.0
1468,14,100,0.730159998,6,2,6,7,8,8,102,102,101,loc2,loc4,4,0.0
1469,14,100,0.7868664259999999,6,6,2,7,8,8,102,102,101,loc3,loc4,4,0.0
1470,14,100,0.712280273,8,5,6,8,6,4,101,102,101,loc6,loc2,4,2.0
1471,14,100,0.733743668,4,6,4,4,2,2,102,102,102,loc2,,4,10.0
1472,14,100,0.585917473,1,1,3,1,3,7,101,101,102,loc6,,4,10.0
1473,14,100,0.792127609,8,4,6,6,6,8,101,102,101,loc2,,4,10.0
1474,14,100,0.6694951060000001,3,1,5,3,1,3,102,101,102,loc3,,4,10.0
1475,14,100,0.648308277,6,2,8,8,6,8,102,102,101,loc2,,4,10.0
1476,14,100,0.735718012,4,6,4,1,4,2,102,102,102,loc2,loc4,4,0.0
1477,14,100,0.779855967,7,5,7,6,5,3,101,101,101,loc6,loc4,4,0.0
1478,14,100,0.677985191,1,4,2,6,4,4,102,102,102,loc4,loc1,4,3.0
1479,14,100,0.572752953,8,8,6,6,2,8,102,102,101,loc5,,4,10.0
1480,14,100,0.594919682,6,6,6,8,8,4,101,102,101,loc6,,4,10.0
1481,14,100,0.525045156,6,6,2,7,8,8,102,102,101,loc3,loc4,4,0.0
1482,14,100,0.48123908,3,1,5,1,3,3,102,101,102,loc3,,4,10.0
1483,14,100,0.69540143,2,4,1,8,2,4,101,102,102,loc4,loc3,4,1.0
1484,14,100,0.497519255,5,3,1,4,1,3,102,101,102,loc1,loc4,4,0.0
1485,14,100,0.66308403,3,3,1,2,1,7,101,101,102,loc6,loc4,4,0.0
1486,14,100,0.553857088,6,4,8,8,6,6,101,102,101,loc2,,4,10.0
1487,14,100,0.509388924,4,8,6,6,6,8,101,102,101,loc1,,4,10.0
1488,14,100,0.7381913659999999,7,5,5,8,3,5,101,101,101,loc5,loc4,4,0.0
1489,14,100,0.938313007,6,6,8,4,8,6,101,102,101,loc4,,4,10.0
1490,14,100,0.654388905,3,5,3,1,1,3,102,101,102,loc2,,4,10.0
1491,14,100,0.669841528,7,5,7,3,5,5,101,101,101,loc4,,4,10.0
1492,14,100,0.523929834,7,5,1,5,7,7,102,101,101,loc3,,4,10.0
1493,14,100,0.6888408659999999,7,7,5,3,5,6,101,101,101,loc4,loc6,4,2.0
1494,14,100,0.7309219840000001,1,3,3,7,1,1,101,101,102,loc4,,4,10.0
1495,14,100,0.598999023,3,1,3,3,1,5,102,101,102,loc6,,4,10.0
1496,14,100,0.608548164,1,5,7,7,5,7,102,101,101,loc1,,4,10.0
1497,14,100,0.665310144,6,4,4,1,2,4,102,102,102,loc1,loc4,4,0.0
1498,14,100,0.528861284,3,1,1,2,3,7,101,101,102,loc6,loc4,4,0.0
1499,14,100,0.68506074,5,3,5,6,7,7,101,101,101,loc2,loc4,4,0.0
1500,14,100,0.660917997,5,7,1,5,7,7,102,101,101,loc3,,4,10.0
1501,14,100,0.579708338,3,5,5,8,5,7,101,101,101,loc1,loc4,4,0.0
1502,14,100,0.669817686,4,2,2,3,2,8,101,102,102,loc6,loc4,4,0.0
1503,14,0,0.47659421,5,7,7,1,5,8,102,101,101,loc4,loc6,4,2.0
1504,14,100,0.6667320729999999,3,3,1,5,3,1,102,101,102,loc4,,4,10.0
1505,14,100,0.485554218,8,8,2,6,6,8,102,102,101,loc3,,4,10.0
1506,14,100,0.763765335,7,7,7,5,1,5,102,101,101,loc5,,4,10.0
1507,14,100,0.571194172,7,7,1,7,5,5,102,101,101,loc3,,4,10.0
1508,14,100,1.621322155,4,4,4,1,6,2,102,102,102,loc5,loc4,4,0.0
1509,14,100,0.545882225,3,1,1,2,3,7,101,101,102,loc6,loc4,4,0.0
1510,14,100,0.565321207,3,7,1,1,3,1,101,101,102,loc2,,4,10.0
1511,14,100,0.888828993,7,5,6,1,7,7,102,101,101,loc4,loc3,4,1.0
1512,14,100,0.642207384,2,4,4,8,2,2,101,102,102,loc4,,4,10.0
1513,14,100,0.618376255,8,2,2,4,4,2,101,102,102,loc1,,4,10.0
1514,14,100,0.483216286,3,1,3,4,5,1,102,101,102,loc5,loc4,4,0.0
1515,14,100,0.5373733039999999,5,5,7,7,5,3,101,101,101,loc6,,4,10.0
1516,14,100,0.44888067200000004,2,2,4,4,8,2,101,102,102,loc5,,4,10.0
1517,14,100,0.625124931,4,2,4,3,6,2,102,102,102,loc5,loc4,4,0.0
1518,14,100,0.48123717299999996,5,6,7,1,7,7,102,101,101,loc4,loc2,4,2.0
1519,14,100,0.647477627,3,7,7,5,5,5,101,101,101,loc1,,4,10.0
1520,14,100,0.534907103,8,4,2,2,4,2,101,102,102,loc1,,4,10.0
1521,14,0,0.587026834,2,4,2,4,8,1,101,102,102,loc5,loc6,4,2.0
1522,14,100,0.785184145,2,6,2,4,4,4,102,102,102,loc2,,4,10.0
1523,14,100,0.715254307,4,4,8,1,2,2,101,102,102,loc3,loc4,4,0.0
1524,14,100,0.792049885,4,4,6,1,4,2,102,102,102,loc3,loc4,4,0.0
1525,14,100,0.562116146,2,8,4,3,2,2,101,102,102,loc2,loc4,4,0.0
1526,14,100,1.0929222109999999,7,3,5,5,7,5,101,101,101,loc2,,4,10.0
1527,14,100,0.658905029,4,2,2,4,8,2,101,102,102,loc5,,4,10.0
1528,14,100,0.901776075,8,6,6,8,8,2,102,102,101,loc6,,4,10.0
1529,14,100,0.8911740779999999,3,5,3,1,3,1,102,101,102,loc2,,4,10.0
1530,14,100,0.8972611429999999,8,6,6,4,8,6,101,102,101,loc4,,4,10.0
1531,14,100,0.650644779,4,2,4,3,2,6,102,102,102,loc6,loc4,4,0.0
1532,14,100,0.9180748459999999,2,3,1,7,3,1,101,101,102,loc4,loc1,4,3.0
1533,14,100,1.04285121,3,1,3,7,1,1,101,101,102,loc4,,4,10.0
1534,14,100,0.8101170059999999,4,6,8,8,6,6,101,102,101,loc1,,4,10.0
1535,14,100,0.611569405,4,2,2,4,4,6,102,102,102,loc6,,4,10.0
1536,14,100,0.692406416,4,2,2,3,4,6,102,102,102,loc6,loc4,4,0.0
1537,14,100,0.661860943,8,4,6,7,6,6,101,102,101,loc2,loc4,4,0.0
1538,14,100,0.6813321109999999,5,5,7,5,3,7,101,101,101,loc5,,4,10.0
1539,14,100,1.2074534890000002,6,8,4,5,6,8,101,102,101,loc3,loc4,4,0.0
1540,14,100,0.560018301,1,7,5,8,5,7,102,101,101,loc1,loc4,4,0.0
1541,14,100,0.579544067,5,8,7,7,5,1,102,101,101,loc6,loc2,4,2.0
1542,14,100,1.085741997,6,8,2,5,8,8,102,102,101,loc3,loc4,4,0.0
1543,14,0,1.175742388,1,3,5,3,1,3,102,101,102,loc3,,4,10.0
1544,14,100,0.726405382,5,7,7,3,5,5,101,101,101,loc4,,4,10.0
1545,14,0,0.9784502979999999,5,5,7,7,7,1,102,101,101,loc6,,4,10.0
1546,14,100,0.852522612,8,2,1,4,4,2,101,102,102,loc1,loc3,4,1.0
1547,14,100,0.743855,1,3,7,1,1,3,101,101,102,loc3,,4,10.0
1548,14,100,0.872030258,1,1,7,3,4,1,101,101,102,loc3,loc5,4,1.0
1549,14,100,0.762067556,6,2,4,3,4,2,102,102,102,loc1,loc4,4,0.0
1550,14,100,0.897470236,4,8,6,7,6,6,101,102,101,loc1,loc4,4,0.0
1551,14,100,0.826862097,7,1,7,6,7,5,102,101,101,loc2,loc4,4,0.0
1552,14,100,1.05898428,1,5,3,2,3,3,102,101,102,loc2,loc4,4,0.0
1553,14,100,0.770402193,2,8,6,6,8,8,102,102,101,loc1,,4,10.0
1554,14,100,0.6211357120000001,4,4,4,2,2,6,102,102,102,loc6,,4,10.0
1555,14,100,0.697216988,8,2,8,6,8,6,102,102,101,loc2,,4,10.0
1556,14,100,0.723347425,6,6,8,6,4,8,101,102,101,loc5,,4,10.0
1557,14,100,0.8994760509999999,7,5,5,1,8,7,102,101,101,loc4,loc5,4,1.0
1558,14,0,0.952814102,6,3,7,5,5,7,101,101,101,loc2,loc1,4,3.0
1559,14,100,1.304189205,5,7,3,8,5,5,101,101,101,loc3,loc4,4,0.0
1560,14,100,0.6491642,1,5,7,7,5,7,102,101,101,loc1,,4,10.0
1561,14,100,0.768639803,6,4,4,2,4,2,102,102,102,loc1,,4,10.0
1562,14,100,1.21146059,3,1,3,2,5,3,102,101,102,loc5,loc4,4,0.0
1563,14,100,0.707994461,7,1,1,2,3,3,101,101,102,loc1,loc4,4,0.0
1564,14,100,0.816796303,5,5,7,3,5,7,101,101,101,loc4,,4,10.0
1565,14,100,1.113589287,8,5,8,6,8,2,102,102,101,loc6,loc2,4,2.0
1566,14,0,1.6789550780000002,2,4,6,3,4,2,102,102,102,loc3,loc4,4,0.0
1567,14,100,0.660719156,4,2,2,2,8,4,101,102,102,loc5,,4,10.0
1568,14,100,1.719533205,3,1,1,4,7,1,101,101,102,loc5,loc4,4,0.0
1569,14,100,1.6280453209999999,1,1,7,3,2,3,101,101,102,loc3,loc5,4,1.0
1570,14,100,0.636497974,8,2,2,4,2,4,101,102,102,loc1,,4,10.0
1571,14,100,1.052743196,1,5,7,8,5,7,102,101,101,loc1,loc4,4,0.0
1572,14,100,0.9113831520000001,4,8,4,1,2,2,101,102,102,loc2,loc4,4,0.0
1573,14,100,1.4087281230000002,8,6,8,8,6,2,102,102,101,loc6,,4,10.0
1574,14,100,0.8012602329999999,3,3,5,3,1,1,102,101,102,loc3,,4,10.0
1575,14,100,1.234778166,5,3,1,2,3,3,102,101,102,loc1,loc4,4,0.0
1576,14,100,0.6306684020000001,8,4,2,4,2,2,101,102,102,loc1,,4,10.0
1577,14,100,1.3148066999999999,5,1,5,8,7,7,102,101,101,loc2,loc4,4,0.0
